##TITLE=EP ATR
##DATA TYPE=INFRARED SPECTRUM
##XUNITS=1/CM
##YUNITS=%T
500.354774  	92.208164 
501.780287  	92.594388 
503.205799  	92.768444 
504.631311  	92.257502 
506.056823  	92.306469 
507.482335  	92.341367 
508.907847  	91.986424 
510.333360  	91.976735 
511.758872  	92.158356 
513.184384  	92.794547 
514.609896  	93.328640 
516.035408  	92.454476 
517.460920  	91.431697 
518.886433  	91.393250 
520.311945  	91.485993 
521.737457  	92.030747 
523.162969  	92.687331 
524.588481  	92.428765 
526.013994  	91.927339 
527.439506  	91.804644 
528.865018  	91.815966 
530.290530  	92.110442 
531.716042  	92.361594 
533.141554  	92.478330 
534.567067  	92.944253 
535.992579  	93.228552 
537.418091  	92.926278 
538.843603  	92.731286 
540.269115  	92.849432 
541.694627  	92.947119 
543.120140  	93.113797 
544.545652  	93.262020 
545.971164  	93.134444 
547.396676  	93.096810 
548.822188  	93.249347 
550.247701  	93.191020 
551.673213  	93.126519 
553.098725  	93.164428 
554.524237  	93.057473 
555.949749  	93.007773 
557.375261  	92.994681 
558.800774  	93.026654 
560.226286  	93.234217 
561.651798  	92.994973 
563.077310  	92.586564 
564.502822  	92.916035 
565.928335  	93.181356 
567.353847  	92.892952 
568.779359  	92.816173 
570.204871  	92.843133 
571.630383  	92.736918 
573.055895  	92.706664 
574.481408  	92.737354 
575.906920  	93.021882 
577.332432  	93.246557 
578.757944  	93.053494 
580.183456  	93.076713 
581.608968  	93.376029 
583.034481  	93.455562 
584.459993  	93.535431 
585.885505  	93.697197 
587.311017  	93.749445 
588.736529  	93.716138 
590.162042  	93.644018 
591.587554  	93.705434 
593.013066  	93.859960 
594.438578  	93.943382 
595.864090  	94.059463 
597.289602  	94.040001 
598.715115  	93.817385 
600.140627  	93.789259 
601.566139  	93.955997 
602.991651  	94.098767 
604.417163  	94.049401 
605.842675  	94.048268 
607.268188  	93.967552 
608.693700  	94.078506 
610.119212  	94.020902 
611.544724  	94.083867 
612.970236  	94.224691 
614.395749  	94.300424 
615.821261  	94.321717 
617.246773  	94.364751 
618.672285  	94.410489 
620.097797  	94.424974 
621.523309  	94.331370 
622.948822  	94.659010 
624.374334  	94.623560 
625.799846  	94.644135 
627.225358  	94.727963 
628.650870  	94.816302 
630.076383  	94.847470 
631.501895  	94.889809 
632.927407  	94.817437 
634.352919  	94.814479 
635.778431  	94.819109 
637.203943  	94.677267 
638.629456  	94.789259 
640.054968  	94.882172 
641.480480  	94.921641 
642.905992  	94.852879 
644.331504  	94.895841 
645.757016  	94.981141 
647.182529  	94.941070 
648.608041  	94.957292 
650.033553  	94.980004 
651.459065  	95.001231 
652.884577  	95.012308 
654.310090  	95.024656 
655.735602  	95.046087 
657.161114  	95.067051 
658.586626  	95.082965 
660.012138  	95.099490 
661.437650  	95.118417 
662.863163  	95.142003 
664.288675  	95.127097 
665.714187  	95.180834 
667.139699  	95.191208 
668.565211  	95.206897 
669.990723  	95.225474 
671.416236  	95.245206 
672.841748  	95.256857 
674.267260  	95.302577 
675.692772  	95.280659 
677.118284  	95.289383 
678.543797  	95.298964 
679.969309  	95.304617 
681.394821  	95.310661 
682.820333  	95.323747 
684.245845  	95.326237 
685.671357  	95.219815 
687.096870  	95.338026 
688.522382  	95.348957 
689.947894  	95.343562 
691.373406  	95.261038 
692.798918  	95.253287 
694.224430  	95.434695 
695.649943  	95.385324 
697.075455  	95.394171 
698.500967  	95.401119 
699.926479  	95.403481 
701.351991  	95.407503 
702.777504  	95.429193 
704.203016  	95.458468 
705.628528  	95.491147 
707.054040  	95.514558 
708.479552  	95.468671 
709.905064  	95.423077 
711.330577  	95.514560 
712.756089  	95.541216 
714.181601  	95.607853 
715.607113  	95.682045 
717.032625  	95.741445 
718.458138  	95.777334 
719.883650  	95.814052 
721.309162  	95.859480 
722.734674  	95.902788 
724.160186  	95.944218 
725.585698  	95.971268 
727.011211  	95.967283 
728.436723  	95.993283 
729.862235  	96.064022 
731.287747  	96.119566 
732.713259  	96.230730 
734.138771  	96.133533 
735.564284  	96.111267 
736.989796  	96.039515 
738.415308  	96.188786 
739.840820  	96.191344 
741.266332  	96.084842 
742.691845  	96.149477 
744.117357  	96.245819 
745.542869  	96.196998 
746.968381  	96.102801 
748.393893  	96.108612 
749.819405  	96.177065 
751.244918  	96.204954 
752.670430  	96.178910 
754.095942  	96.075333 
755.521454  	95.942092 
756.946966  	95.906193 
758.372478  	95.961458 
759.797991  	96.033975 
761.223503  	96.002453 
762.649015  	95.819024 
764.074527  	95.708024 
765.500039  	95.741244 
766.925552  	95.802019 
768.351064  	95.960666 
769.776576  	96.138566 
771.202088  	96.155513 
772.627600  	96.178419 
774.053112  	96.359711 
775.478625  	96.518140 
776.904137  	96.432559 
778.329649  	96.235743 
779.755161  	96.255815 
781.180673  	96.434337 
782.606186  	96.565591 
784.031698  	96.655950 
785.457210  	96.659024 
786.882722  	96.665817 
788.308234  	96.745575 
789.733746  	96.668136 
791.159259  	96.556240 
792.584771  	96.582020 
794.010283  	96.563492 
795.435795  	96.649349 
796.861307  	96.849047 
798.286819  	96.845855 
799.712332  	96.798575 
801.137844  	96.803407 
802.563356  	96.792060 
803.988868  	96.907352 
805.414380  	96.928843 
806.839893  	96.781887 
808.265405  	96.791972 
809.690917  	96.861453 
811.116429  	96.863008 
812.541941  	96.861655 
813.967453  	96.790222 
815.392966  	96.732895 
816.818478  	96.696080 
818.243990  	96.637345 
819.669502  	96.720602 
821.095014  	96.789002 
822.520526  	96.718954 
823.946039  	96.741255 
825.371551  	96.791520 
826.797063  	96.802867 
828.222575  	96.876364 
829.648087  	96.889945 
831.073600  	96.853390 
832.499112  	96.802564 
833.924624  	96.586023 
835.350136  	96.324368 
836.775648  	96.217302 
838.201160  	96.280916 
839.626673  	96.458841 
841.052185  	96.542122 
842.477697  	96.445678 
843.903209  	96.250890 
845.328721  	96.031931 
846.754234  	96.031235 
848.179746  	96.203974 
849.605258  	96.196933 
851.030770  	96.151258 
852.456282  	96.246609 
853.881794  	96.225666 
855.307307  	96.066095 
856.732819  	95.975157 
858.158331  	96.019140 
859.583843  	96.137321 
861.009355  	96.158045 
862.434867  	96.119973 
863.860380  	96.190193 
865.285892  	96.263566 
866.711404  	96.339686 
868.136916  	96.519796 
869.562428  	96.619456 
870.987941  	96.611264 
872.413453  	96.658459 
873.838965  	96.677717 
875.264477  	96.597538 
876.689989  	96.465148 
878.115501  	96.345528 
879.541014  	96.381125 
880.966526  	96.505932 
882.392038  	96.523269 
883.817550  	96.493915 
885.243062  	96.496428 
886.668574  	96.494051 
888.094087  	96.478840 
889.519599  	96.433664 
890.945111  	96.405095 
892.370623  	96.398776 
893.796135  	96.319610 
895.221648  	96.252694 
896.647160  	96.251392 
898.072672  	96.203325 
899.498184  	96.187175 
900.923696  	96.247528 
902.349208  	96.233282 
903.774721  	96.166887 
905.200233  	96.133128 
906.625745  	96.110040 
908.051257  	96.064703 
909.476769  	95.950890 
910.902281  	95.850074 
912.327794  	95.848031 
913.753306  	95.825661 
915.178818  	95.769281 
916.604330  	95.751585 
918.029842  	95.718253 
919.455355  	95.693062 
920.880867  	95.689325 
922.306379  	95.630780 
923.731891  	95.583268 
925.157403  	95.606767 
926.582915  	95.649555 
928.008428  	95.691768 
929.433940  	95.708709 
930.859452  	95.693889 
932.284964  	95.662840 
933.710476  	95.608660 
935.135989  	95.582410 
936.561501  	95.597673 
937.987013  	95.606127 
939.412525  	95.643220 
940.838037  	95.696469 
942.263549  	95.711028 
943.689062  	95.746143 
945.114574  	95.774372 
946.540086  	95.695525 
947.965598  	95.621068 
949.391110  	95.646580 
950.816622  	95.640745 
952.242135  	95.558909 
953.667647  	95.478651 
955.093159  	95.378366 
956.518671  	95.277131 
957.944183  	95.237083 
959.369696  	95.177500 
960.795208  	95.075645 
962.220720  	95.017422 
963.646232  	94.948229 
965.071744  	94.794094 
966.497256  	94.601536 
967.922769  	94.422429 
969.348281  	94.291790 
970.773793  	94.207802 
972.199305  	94.133883 
973.624817  	94.013863 
975.050329  	93.772929 
976.475842  	93.502554 
977.901354  	93.336426 
979.326866  	93.189513 
980.752378  	93.019096 
982.177890  	92.873803 
983.603403  	92.733170 
985.028915  	92.637917 
986.454427  	92.540554 
987.879939  	92.348337 
989.305451  	92.198284 
990.730963  	92.143580 
992.156476  	92.105636 
993.581988  	92.107251 
995.007500  	92.094061 
996.433012  	92.052727 
997.858524  	92.097364 
999.284037  	92.177945 
1000.709549  	92.188846 
1002.135061  	92.165655 
1003.560573  	92.204224 
1004.986085  	92.315987 
1006.411597  	92.378914 
1007.837110  	92.393602 
1009.262622  	92.499230 
1010.688134  	92.649453 
1012.113646  	92.697616 
1013.539158  	92.662887 
1014.964670  	92.692004 
1016.390183  	92.815738 
1017.815695  	92.915822 
1019.241207  	93.001453 
1020.666719  	93.112885 
1022.092231  	93.174309 
1023.517744  	93.275063 
1024.943256  	93.504205 
1026.368768  	93.707442 
1027.794280  	93.810989 
1029.219792  	93.878929 
1030.645304  	93.942181 
1032.070817  	94.045765 
1033.496329  	94.211251 
1034.921841  	94.354464 
1036.347353  	94.371760 
1037.772865  	94.323150 
1039.198377  	94.358726 
1040.623890  	94.460624 
1042.049402  	94.546295 
1043.474914  	94.638346 
1044.900426  	94.771388 
1046.325938  	94.942373 
1047.751451  	95.067484 
1049.176963  	95.099993 
1050.602475  	95.170736 
1052.027987  	95.349161 
1053.453499  	95.574694 
1054.879011  	95.812418 
1056.304524  	96.023305 
1057.730036  	96.204548 
1059.155548  	96.383837 
1060.581060  	96.563852 
1062.006572  	96.703543 
1063.432085  	96.732523 
1064.857597  	96.741930 
1066.283109  	96.817493 
1067.708621  	96.767013 
1069.134133  	96.522398 
1070.559645  	96.292775 
1071.985158  	96.142623 
1073.410670  	95.981594 
1074.836182  	95.809597 
1076.261694  	95.744888 
1077.687206  	95.848675 
1079.112718  	95.958277 
1080.538231  	96.045448 
1081.963743  	96.236122 
1083.389255  	96.408938 
1084.814767  	96.534998 
1086.240279  	96.719201 
1087.665792  	96.854913 
1089.091304  	96.944473 
1090.516816  	97.055634 
1091.942328  	97.101591 
1093.367840  	97.136055 
1094.793352  	97.205932 
1096.218865  	97.229087 
1097.644377  	97.254190 
1099.069889  	97.281644 
1100.495401  	97.255388 
1101.920913  	97.264975 
1103.346425  	97.305866 
1104.771938  	97.296900 
1106.197450  	97.294908 
1107.622962  	97.353313 
1109.048474  	97.446179 
1110.473986  	97.511600 
1111.899499  	97.517243 
1113.325011  	97.529383 
1114.750523  	97.558839 
1116.176035  	97.517561 
1117.601547  	97.446024 
1119.027059  	97.457767 
1120.452572  	97.511443 
1121.878084  	97.500071 
1123.303596  	97.452434 
1124.729108  	97.466815 
1126.154620  	97.527425 
1127.580132  	97.564886 
1129.005645  	97.594261 
1130.431157  	97.627871 
1131.856669  	97.620612 
1133.282181  	97.575844 
1134.707693  	97.519715 
1136.133206  	97.455182 
1137.558718  	97.402310 
1138.984230  	97.325282 
1140.409742  	97.183440 
1141.835254  	97.059888 
1143.260766  	96.988439 
1144.686279  	96.904124 
1146.111791  	96.852592 
1147.537303  	96.868817 
1148.962815  	96.858049 
1150.388327  	96.839273 
1151.813840  	96.881689 
1153.239352  	96.925609 
1154.664864  	96.979830 
1156.090376  	97.117195 
1157.515888  	97.290588 
1158.941400  	97.432951 
1160.366913  	97.551780 
1161.792425  	97.662667 
1163.217937  	97.787520 
1164.643449  	97.974920 
1166.068961  	98.176096 
1167.494473  	98.296283 
1168.919986  	98.414099 
1170.345498  	98.575618 
1171.771010  	98.660013 
1173.196522  	98.684360 
1174.622034  	98.739410 
1176.047547  	98.784012 
1177.473059  	98.814999 
1178.898571  	98.893374 
1180.324083  	98.971630 
1181.749595  	98.966921 
1183.175107  	98.939452 
1184.600620  	98.954560 
1186.026132  	98.921870 
1187.451644  	98.845640 
1188.877156  	98.832944 
1190.302668  	98.817962 
1191.728180  	98.769993 
1193.153693  	98.757947 
1194.579205  	98.706036 
1196.004717  	98.625949 
1197.430229  	98.626679 
1198.855741  	98.615430 
1200.281254  	98.555464 
1201.706766  	98.534877 
1203.132278  	98.505489 
1204.557790  	98.454233 
1205.983302  	98.441800 
1207.408814  	98.446717 
1208.834327  	98.458977 
1210.259839  	98.447226 
1211.685351  	98.384012 
1213.110863  	98.357728 
1214.536375  	98.362734 
1215.961888  	98.298474 
1217.387400  	98.213294 
1218.812912  	98.181097 
1220.238424  	98.162594 
1221.663936  	98.127881 
1223.089448  	98.083051 
1224.514961  	98.022464 
1225.940473  	97.955862 
1227.365985  	97.897309 
1228.791497  	97.831810 
1230.217009  	97.772787 
1231.642521  	97.739630 
1233.068034  	97.678410 
1234.493546  	97.610293 
1235.919058  	97.618609 
1237.344570  	97.622982 
1238.770082  	97.582743 
1240.195595  	97.590895 
1241.621107  	97.594712 
1243.046619  	97.564012 
1244.472131  	97.595752 
1245.897643  	97.642089 
1247.323155  	97.643379 
1248.748668  	97.653957 
1250.174180  	97.688939 
1251.599692  	97.747506 
1253.025204  	97.803299 
1254.450716  	97.825678 
1255.876228  	97.870569 
1257.301741  	97.931018 
1258.727253  	97.936137 
1260.152765  	97.922082 
1261.578277  	97.940453 
1263.003789  	97.982390 
1264.429302  	98.041794 
1265.854814  	98.097315 
1267.280326  	98.124932 
1268.705838  	98.135125 
1270.131350  	98.151934 
1271.556862  	98.187912 
1272.982375  	98.234816 
1274.407887  	98.281388 
1275.833399  	98.328388 
1277.258911  	98.361808 
1278.684423  	98.356544 
1280.109935  	98.341944 
1281.535448  	98.368011 
1282.960960  	98.402267 
1284.386472  	98.397621 
1285.811984  	98.374633 
1287.237496  	98.350378 
1288.663009  	98.328813 
1290.088521  	98.323105 
1291.514033  	98.324670 
1292.939545  	98.329694 
1294.365057  	98.324964 
1295.790569  	98.295040 
1297.216082  	98.283121 
1298.641594  	98.295065 
1300.067106  	98.293914 
1301.492618  	98.305655 
1302.918130  	98.335159 
1304.343643  	98.294969 
1305.769155  	98.288969 
1307.194667  	98.281677 
1308.620179  	98.274963 
1310.045691  	98.268246 
1311.471203  	98.259414 
1312.896716  	98.250760 
1314.322228  	98.240823 
1315.747740  	98.228932 
1317.173252  	98.218727 
1318.598764  	98.209876 
1320.024276  	98.200969 
1321.449789  	98.193124 
1322.875301  	98.186115 
1324.300813  	98.179434 
1325.726325  	98.143148 
1327.151837  	98.164832 
1328.577350  	98.155739 
1330.002862  	98.147101 
1331.428374  	98.139837 
1332.853886  	98.162852 
1334.279398  	98.135877 
1335.704910  	98.133949 
1337.130423  	98.132811 
1338.555935  	98.131834 
1339.981447  	98.130157 
1341.406959  	98.126928 
1342.832471  	98.122890 
1344.257983  	98.120897 
1345.683496  	98.141802 
1347.109008  	98.115710 
1348.534520  	98.110090 
1349.960032  	98.105539 
1351.385544  	98.104107 
1352.811057  	98.092064 
1354.236569  	98.096275 
1355.662081  	98.093418 
1357.087593  	98.113386 
1358.513105  	98.086962 
1359.938617  	98.084646 
1361.364130  	98.083405 
1362.789642  	98.082675 
1364.215154  	98.086311 
1365.640666  	98.007303 
1367.066178  	98.097023 
1368.491691  	98.105347 
1369.917203  	98.114169 
1371.342715  	98.126368 
1372.768227  	98.143787 
1374.193739  	98.163699 
1375.619251  	98.185635 
1377.044764  	98.209158 
1378.470276  	98.234421 
1379.895788  	98.258717 
1381.321300  	98.263549 
1382.746812  	98.307666 
1384.172324  	98.396650 
1385.597837  	98.346598 
1387.023349  	98.362617 
1388.448861  	98.375968 
1389.874373  	98.390160 
1391.299885  	98.406303 
1392.725398  	98.417661 
1394.150910  	98.428507 
1395.576422  	98.435265 
1397.001934  	98.438639 
1398.427446  	98.440867 
1399.852958  	98.442574 
1401.278471  	98.445497 
1402.703983  	98.449816 
1404.129495  	98.453952 
1405.555007  	98.458037 
1406.980519  	98.460305 
1408.406031  	98.454934 
1409.831544  	98.459787 
1411.257056  	98.460518 
1412.682568  	98.461335 
1414.108080  	98.463460 
1415.533592  	98.464700 
1416.959105  	98.465396 
1418.384617  	98.470415 
1419.810129  	98.479859 
1421.235641  	98.487951 
1422.661153  	98.494079 
1424.086665  	98.501007 
1425.512178  	98.503466 
1426.937690  	98.470174 
1428.363202  	98.494513 
1429.788714  	98.492847 
1431.214226  	98.495849 
1432.639739  	98.506199 
1434.065251  	98.519256 
1435.490763  	98.531542 
1436.916275  	98.543043 
1438.341787  	98.552264 
1439.767299  	98.548537 
1441.192812  	98.567464 
1442.618324  	98.585496 
1444.043836  	98.623920 
1445.469348  	98.612284 
1446.894860  	98.612764 
1448.320372  	98.610002 
1449.745885  	98.613989 
1451.171397  	98.627796 
1452.596909  	98.648387 
1454.022421  	98.667527 
1455.447933  	98.682743 
1456.873446  	98.699070 
1458.298958  	98.718907 
1459.724470  	98.742721 
1461.149982  	98.761375 
1462.575494  	98.780285 
1464.001006  	98.792404 
1465.426519  	98.798284 
1466.852031  	98.803723 
1468.277543  	98.821513 
1469.703055  	98.824482 
1471.128567  	98.847700 
1472.554079  	98.881233 
1473.979592  	98.912254 
1475.405104  	98.937357 
1476.830616  	98.955155 
1478.256128  	98.964182 
1479.681640  	98.958920 
1481.107153  	98.986983 
1482.532665  	98.993436 
1483.958177  	99.103179 
1485.383689  	99.000615 
1486.809201  	99.008040 
1488.234713  	99.022492 
1489.660226  	99.039802 
1491.085738  	99.054834 
1492.511250  	99.068818 
1493.936762  	99.082499 
1495.362274  	99.085267 
1496.787786  	99.077890 
1498.213299  	99.066792 
1499.638811  	99.055288 
1501.064323  	99.048289 
1502.489835  	99.105506 
1503.915347  	99.049299 
1505.340860  	99.048160 
1506.766372  	99.046543 
1508.191884  	99.042222 
1509.617396  	99.033204 
1511.042908  	99.023189 
1512.468420  	99.013009 
1513.893933  	99.002392 
1515.319445  	98.991568 
1516.744957  	98.978985 
1518.170469  	98.964881 
1519.595981  	98.957235 
1521.021494  	98.954682 
1522.447006  	98.957846 
1523.872518  	98.963604 
1525.298030  	98.966531 
1526.723542  	98.968489 
1528.149054  	98.968027 
1529.574567  	98.961563 
1531.000079  	98.956379 
1532.425591  	98.934118 
1533.851103  	98.926917 
1535.276615  	98.928553 
1536.702127  	98.931041 
1538.127640  	98.931110 
1539.553152  	98.932952 
1540.978664  	98.936158 
1542.404176  	98.941988 
1543.829688  	98.949150 
1545.255201  	98.957593 
1546.680713  	98.958041 
1548.106225  	98.890201 
1549.531737  	98.934145 
1550.957249  	98.921825 
1552.382761  	98.914203 
1553.808274  	98.912824 
1555.233786  	98.919802 
1556.659298  	98.930395 
1558.084810  	98.938768 
1559.510322  	98.943296 
1560.935834  	98.948103 
1562.361347  	98.949632 
1563.786859  	98.951357 
1565.212371  	98.946922 
1566.637883  	98.934343 
1568.063395  	98.917019 
1569.488908  	98.901124 
1570.914420  	98.890496 
1572.339932  	98.975892 
1573.765444  	98.901205 
1575.190956  	98.901715 
1576.616468  	98.902657 
1578.041981  	98.901946 
1579.467493  	98.800000 
1580.893005  	98.893825 
1582.318517  	98.892510 
1583.744029  	98.888729 
1585.169542  	98.883668 
1586.595054  	98.839513 
1588.020566  	98.871087 
1589.446078  	98.865109 
1590.871590  	98.915289 
1592.297102  	98.863217 
1593.722615  	98.860881 
1595.148127  	98.856206 
1596.573639  	98.850935 
1597.999151  	98.862862 
1599.424663  	98.844262 
1600.850175  	98.839912 
1602.275688  	98.833187 
1603.701200  	98.825313 
1605.126712  	98.788659 
1606.552224  	98.798907 
1607.977736  	98.781242 
1609.403249  	98.763705 
1610.828761  	98.748025 
1612.254273  	98.806892 
1613.679785  	98.790661 
1615.105297  	98.696783 
1616.530809  	98.681149 
1617.956322  	98.671694 
1619.381834  	98.586212 
1620.807346  	98.583036 
1622.232858  	98.659709 
1623.658370  	98.656302 
1625.083882  	98.646249 
1626.509395  	98.470743 
1627.934907  	98.619791 
1629.360419  	98.612807 
1630.785931  	98.705611 
1632.211443  	98.633097 
1633.636956  	98.646061 
1635.062468  	98.653609 
1636.487980  	98.657529 
1637.913492  	98.667266 
1639.339004  	98.684350 
1640.764516  	98.702331 
1642.190029  	98.697557 
1643.615541  	98.685462 
1645.041053  	98.669596 
1646.466565  	98.657520 
1647.892077  	98.651943 
1649.317590  	98.654488 
1650.743102  	98.661714 
1652.168614  	98.669365 
1653.594126  	98.676545 
1655.019638  	98.680220 
1656.445150  	98.677884 
1657.870663  	98.652392 
1659.296175  	98.650040 
1660.721687  	98.695450 
1662.147199  	98.700671 
1663.572711  	98.701526 
1664.998223  	98.701902 
1666.423736  	98.718255 
1667.849248  	98.737899 
1669.274760  	98.761429 
1670.700272  	98.783238 
1672.125784  	98.799676 
1673.551297  	98.805150 
1674.976809  	98.807272 
1676.402321  	98.810721 
1677.827833  	98.815830 
1679.253345  	98.822784 
1680.678857  	98.828795 
1682.104370  	98.836517 
1683.529882  	98.850702 
1684.955394  	98.865012 
1686.380906  	98.871329 
1687.806418  	98.872252 
1689.231930  	98.868294 
1690.657443  	98.862212 
1692.082955  	98.927208 
1693.508467  	98.840550 
1694.933979  	98.820630 
1696.359491  	98.802367 
1697.785004  	98.794367 
1699.210516  	98.791243 
1700.636028  	98.788297 
1702.061540  	98.781336 
1703.487052  	98.768040 
1704.912564  	98.749439 
1706.338077  	98.719684 
1707.763589  	98.681598 
1709.189101  	98.645845 
1710.614613  	98.618087 
1712.040125  	98.595763 
1713.465637  	98.581822 
1714.891150  	98.572210 
1716.316662  	98.567019 
1717.742174  	98.565011 
1719.167686  	98.565358 
1720.593198  	98.566677 
1722.018711  	98.566543 
1723.444223  	98.564262 
1724.869735  	98.556841 
1726.295247  	98.522317 
1727.720759  	98.554302 
1729.146271  	98.561165 
1730.571784  	98.575579 
1731.997296  	98.597272 
1733.422808  	98.622258 
1734.848320  	98.647768 
1736.273832  	98.672359 
1737.699345  	98.693731 
1739.124857  	98.712821 
1740.550369  	98.730187 
1741.975881  	98.747843 
1743.401393  	98.766969 
1744.826905  	98.786325 
1746.252418  	98.806324 
1747.677930  	98.834361 
1749.103442  	98.865653 
1750.528954  	98.895169 
1751.954466  	98.922266 
1753.379978  	98.948829 
1754.805491  	98.976106 
1756.231003  	99.003474 
1757.656515  	99.030731 
1759.082027  	99.055995 
1760.507539  	99.075823 
1761.933052  	99.091806 
1763.358564  	99.106708 
1764.784076  	99.169775 
1766.209588  	99.136461 
1767.635100  	99.150876 
1769.060612  	99.164455 
1770.486125  	99.175207 
1771.911637  	99.182379 
1773.337149  	99.188937 
1774.762661  	99.194484 
1776.188173  	99.198981 
1777.613685  	99.206433 
1779.039198  	99.213909 
1780.464710  	99.213328 
1781.890222  	99.206662 
1783.315734  	99.195960 
1784.741246  	99.187543 
1786.166759  	99.189113 
1787.592271  	99.220368 
1789.017783  	99.201562 
1790.443295  	99.198899 
1791.868807  	99.193379 
1793.294319  	99.188999 
1794.719832  	99.186262 
1796.145344  	99.184270 
1797.570856  	99.182791 
1798.996368  	99.180472 
1800.421880  	99.178067 
1801.847393  	99.175608 
1803.272905  	99.174464 
1804.698417  	99.176657 
1806.123929  	99.176761 
1807.549441  	99.194630 
1808.974953  	99.206470 
1810.400466  	99.212973 
1811.825978  	99.214164 
1813.251490  	99.217581 
1814.677002  	99.304556 
1816.102514  	99.233632 
1817.528026  	99.236082 
1818.953539  	99.236081 
1820.379051  	99.233397 
1821.804563  	99.227334 
1823.230075  	99.222553 
1824.655587  	99.219620 
1826.081100  	99.216429 
1827.506612  	99.212585 
1828.932124  	99.210050 
1830.357636  	99.209617 
1831.783148  	99.211640 
1833.208660  	99.064685 
1834.634173  	99.204959 
1836.059685  	99.202863 
1837.485197  	99.198941 
1838.910709  	99.194238 
1840.336221  	99.254353 
1841.761733  	99.193219 
1843.187246  	99.194347 
1844.612758  	99.199176 
1846.038270  	99.207958 
1847.463782  	99.214881 
1848.889294  	99.218733 
1850.314807  	99.218538 
1851.740319  	99.210869 
1853.165831  	99.216344 
1854.591343  	99.212838 
1856.016855  	99.206174 
1857.442367  	99.202317 
1858.867880  	99.200909 
1860.293392  	99.199560 
1861.718904  	99.197202 
1863.144416  	99.194544 
1864.569928  	99.193757 
1865.995440  	99.199099 
1867.420953  	99.201216 
1868.846465  	99.193147 
1870.271977  	99.185453 
1871.697489  	99.185473 
1873.123001  	99.109479 
1874.548514  	99.187708 
1875.974026  	99.197236 
1877.399538  	99.198275 
1878.825050  	99.193813 
1880.250562  	99.074312 
1881.676074  	99.172556 
1883.101587  	99.217952 
1884.527099  	99.187947 
1885.952611  	99.199530 
1887.378123  	99.198736 
1888.803635  	99.201331 
1890.229148  	99.199085 
1891.654660  	99.163519 
1893.080172  	99.204492 
1894.505684  	99.221424 
1895.931196  	99.222031 
1897.356708  	99.222707 
1898.782221  	99.238882 
1900.207733  	99.231483 
1901.633245  	99.233511 
1903.058757  	99.241567 
1904.484269  	99.243861 
1905.909781  	99.247660 
1907.335294  	99.250165 
1908.760806  	99.251371 
1910.186318  	99.253406 
1911.611830  	99.292174 
1913.037342  	99.286131 
1914.462855  	99.270971 
1915.888367  	99.258107 
1917.313879  	99.259178 
1918.739391  	99.261775 
1920.164903  	99.171777 
1921.590415  	99.257668 
1923.015928  	99.250038 
1924.441440  	99.253832 
1925.866952  	99.286031 
1927.292464  	99.263014 
1928.717976  	99.264085 
1930.143488  	99.274616 
1931.569001  	99.283802 
1932.994513  	99.295283 
1934.420025  	99.306108 
1935.845537  	99.325117 
1937.271049  	99.337920 
1938.696562  	99.333328 
1940.122074  	99.339772 
1941.547586  	99.339731 
1942.973098  	99.338755 
1944.398610  	99.345789 
1945.824122  	99.464499 
1947.249635  	99.357120 
1948.675147  	99.406337 
1950.100659  	99.376628 
1951.526171  	99.366822 
1952.951683  	99.240521 
1954.377196  	99.367265 
1955.802708  	99.355320 
1957.228220  	99.347296 
1958.653732  	99.356565 
1960.079244  	99.358416 
1961.504756  	99.359989 
1962.930269  	99.374165 
1964.355781  	99.389569 
1965.781293  	99.383348 
1967.206805  	99.368372 
1968.632317  	99.413546 
1970.057829  	99.376795 
1971.483342  	99.358189 
1972.908854  	99.351423 
1974.334366  	99.350579 
1975.759878  	99.337541 
1977.185390  	99.327048 
1978.610903  	99.331980 
1980.036415  	99.337743 
1981.461927  	99.320050 
1982.887439  	99.285030 
1984.312951  	99.348396 
1985.738463  	99.308232 
1987.163976  	99.201034 
1988.589488  	99.325935 
1990.015000  	99.232261 
1991.440512  	99.228967 
1992.866024  	99.241154 
1994.291536  	99.190740 
1995.717049  	98.836462 
1997.142561  	99.066226 
1998.568073  	99.354951 
1999.993585  	99.280739 
2001.419097  	99.259347 
2002.844610  	99.426800 
2004.270122  	99.617552 
2005.695634  	99.783142 
2007.121146  	99.694403 
2008.546658  	99.480596 
2009.972170  	99.442210 
2011.397683  	99.390523 
2012.823195  	99.106357 
2014.248707  	98.883542 
2015.674219  	98.975766 
2017.099731  	99.160501 
2018.525244  	99.280815 
2019.950756  	99.460391 
2021.376268  	99.468717 
2022.801780  	99.141635 
2024.227292  	98.946277 
2025.652804  	99.076004 
2027.078317  	99.156566 
2028.503829  	99.091310 
2029.929341  	99.132212 
2031.354853  	99.191638 
2032.780365  	99.124358 
2034.205877  	99.242319 
2035.631390  	99.422952 
2037.056902  	99.201059 
2038.482414  	99.005507 
2039.907926  	99.045309 
2041.333438  	98.977745 
2042.758951  	99.051140 
2044.184463  	99.253957 
2045.609975  	99.154698 
2047.035487  	99.061306 
2048.460999  	99.139533 
2049.886511  	99.067910 
2051.312024  	98.925050 
2052.737536  	98.901279 
2054.163048  	99.007295 
2055.588560  	99.151398 
2057.014072  	99.262085 
2058.439584  	99.351340 
2059.865097  	99.314932 
2061.290609  	99.258760 
2062.716121  	99.311877 
2064.141633  	99.175314 
2065.567145  	99.003273 
2066.992658  	99.139509 
2068.418170  	99.238994 
2069.843682  	99.170842 
2071.269194  	99.099050 
2072.694706  	99.050022 
2074.120218  	99.201948 
2075.545731  	99.322301 
2076.971243  	99.161885 
2078.396755  	99.163056 
2079.822267  	99.284455 
2081.247779  	99.206558 
2082.673291  	99.167007 
2084.098804  	99.144911 
2085.524316  	99.085857 
2086.949828  	99.184740 
2088.375340  	99.189944 
2089.800852  	99.069559 
2091.226365  	99.181608 
2092.651877  	99.328830 
2094.077389  	99.269507 
2095.502901  	99.205845 
2096.928413  	99.235085 
2098.353925  	99.281718 
2099.779438  	99.287149 
2101.204950  	99.213144 
2102.630462  	99.177049 
2104.055974  	99.307116 
2105.481486  	99.381192 
2106.906999  	99.174635 
2108.332511  	98.991783 
2109.758023  	99.048131 
2111.183535  	99.071764 
2112.609047  	99.013465 
2114.034559  	99.025269 
2115.460072  	99.038335 
2116.885584  	99.066753 
2118.311096  	99.141526 
2119.736608  	99.184631 
2121.162120  	99.203220 
2122.587632  	99.146355 
2124.013145  	99.109896 
2125.438657  	99.261819 
2126.864169  	99.285533 
2128.289681  	99.068003 
2129.715193  	99.087647 
2131.140706  	99.368404 
2132.566218  	99.503842 
2133.991730  	99.471497 
2135.417242  	99.421044 
2136.842754  	99.333635 
2138.268266  	99.301389 
2139.693779  	99.468562 
2141.119291  	99.574089 
2142.544803  	99.335109 
2143.970315  	99.127342 
2145.395827  	99.201726 
2146.821339  	99.227791 
2148.246852  	99.270084 
2149.672364  	99.480610 
2151.097876  	99.453852 
2152.523388  	99.296067 
2153.948900  	99.506899 
2155.374413  	99.607071 
2156.799925  	99.165759 
2158.225437  	98.993705 
2159.650949  	99.224858 
2161.076461  	99.092776 
2162.501973  	98.822414 
2163.927486  	98.719400 
2165.352998  	98.696903 
2166.778510  	98.754125 
2168.204022  	98.952119 
2169.629534  	99.330149 
2171.055047  	99.666867 
2172.480559  	99.613383 
2173.906071  	99.516467 
2175.331583  	99.494582 
2176.757095  	99.154832 
2178.182607  	98.897983 
2179.608120  	99.007127 
2181.033632  	99.102817 
2182.459144  	99.088512 
2183.884656  	99.018627 
2185.310168  	99.019910 
2186.735680  	99.098222 
2188.161193  	98.891482 
2189.586705  	98.700448 
2191.012217  	98.816601 
2192.437729  	98.776169 
2193.863241  	98.855441 
2195.288754  	99.338809 
2196.714266  	99.315835 
2198.139778  	98.730569 
2199.565290  	98.644976 
2200.990802  	99.181140 
2202.416314  	99.544957 
2203.841827  	99.462517 
2205.267339  	99.416333 
2206.692851  	99.389964 
2208.118363  	99.089813 
2209.543875  	98.969347 
2210.969387  	99.219821 
2212.394900  	99.332727 
2213.820412  	99.207084 
2215.245924  	99.030690 
2216.671436  	98.949562 
2218.096948  	99.036801 
2219.522461  	99.109714 
2220.947973  	99.118348 
2222.373485  	99.112174 
2223.798997  	99.063783 
2225.224509  	99.116636 
2226.650021  	99.198846 
2228.075534  	99.178332 
2229.501046  	99.225116 
2230.926558  	99.228379 
2232.352070  	99.133936 
2233.777582  	99.204568 
2235.203095  	99.259647 
2236.628607  	99.079613 
2238.054119  	98.955644 
2239.479631  	99.103260 
2240.905143  	99.328229 
2242.330655  	99.312874 
2243.756168  	99.146536 
2245.181680  	99.145941 
2246.607192  	99.214369 
2248.032704  	99.171791 
2249.458216  	99.163266 
2250.883728  	99.164197 
2252.309241  	99.165128 
2253.734753  	99.166059 
2255.160265  	99.166989 
2256.585777  	99.167920 
2258.011289  	99.168851 
2259.436802  	99.169782 
2260.862314  	99.170713 
2262.287826  	99.171644 
2263.713338  	99.172575 
2265.138850  	99.173506 
2266.564362  	99.174436 
2267.989875  	99.175367 
2269.415387  	99.176298 
2270.840899  	99.177229 
2272.266411  	99.178160 
2273.691923  	99.179091 
2275.117435  	99.180022 
2276.542948  	99.180953 
2277.968460  	99.181884 
2279.393972  	99.182814 
2280.819484  	99.183745 
2282.244996  	99.184676 
2283.670509  	99.185607 
2285.096021  	99.186538 
2286.521533  	99.187469 
2287.947045  	99.188400 
2289.372557  	99.189331 
2290.798069  	99.190261 
2292.223582  	99.191192 
2293.649094  	99.192123 
2295.074606  	99.193054 
2296.500118  	99.193985 
2297.925630  	99.194916 
2299.351142  	99.195847 
2300.776655  	99.196778 
2302.202167  	99.197708 
2303.627679  	99.198639 
2305.053191  	99.199570 
2306.478703  	99.200501 
2307.904216  	99.201432 
2309.329728  	99.202363 
2310.755240  	99.203294 
2312.180752  	99.204225 
2313.606264  	99.205155 
2315.031776  	99.206086 
2316.457289  	99.207017 
2317.882801  	99.207948 
2319.308313  	99.208879 
2320.733825  	99.209810 
2322.159337  	99.210741 
2323.584850  	99.211672 
2325.010362  	99.212602 
2326.435874  	99.213533 
2327.861386  	99.214464 
2329.286898  	99.215395 
2330.712410  	99.216326 
2332.137923  	99.217257 
2333.563435  	99.218188 
2334.988947  	99.219119 
2336.414459  	99.220050 
2337.839971  	99.220980 
2339.265483  	99.221911 
2340.690996  	99.222842 
2342.116508  	99.223773 
2343.542020  	99.224704 
2344.967532  	99.225635 
2346.393044  	99.226566 
2347.818557  	99.227497 
2349.244069  	99.228427 
2350.669581  	99.229358 
2352.095093  	99.230289 
2353.520605  	99.231220 
2354.946117  	99.232151 
2356.371630  	99.233082 
2357.797142  	99.234013 
2359.222654  	99.234944 
2360.648166  	99.235874 
2362.073678  	99.236805 
2363.499190  	99.237736 
2364.924703  	99.238667 
2366.350215  	99.239598 
2367.775727  	99.240529 
2369.201239  	99.241460 
2370.626751  	99.242391 
2372.052264  	99.243321 
2373.477776  	99.244252 
2374.903288  	99.245183 
2376.328800  	99.246114 
2377.754312  	99.247045 
2379.179824  	99.247976 
2380.605337  	99.248907 
2382.030849  	99.249838 
2383.456361  	99.250769 
2384.881873  	99.251699 
2386.307385  	99.252630 
2387.732898  	99.253561 
2389.158410  	99.254492 
2390.583922  	99.255423 
2392.009434  	99.256354 
2393.434946  	99.257285 
2394.860458  	99.258216 
2396.285971  	99.259146 
2397.711483  	99.260077 
2399.136995  	99.261008 
2400.562507  	99.261939 
2401.988019  	99.335722 
2403.413531  	99.371668 
2404.839044  	99.293394 
2406.264556  	99.247513 
2407.690068  	99.226474 
2409.115580  	99.167927 
2410.541092  	99.159601 
2411.966605  	99.181167 
2413.392117  	99.217140 
2414.817629  	99.305956 
2416.243141  	99.331813 
2417.668653  	99.293678 
2419.094165  	99.308893 
2420.519678  	99.319923 
2421.945190  	99.265153 
2423.370702  	99.195083 
2424.796214  	99.196715 
2426.221726  	99.285033 
2427.647238  	99.323264 
2429.072751  	99.310771 
2430.498263  	99.351762 
2431.923775  	99.353929 
2433.349287  	99.313028 
2434.774799  	99.330182 
2436.200312  	99.327191 
2437.625824  	99.271573 
2439.051336  	99.216715 
2440.476848  	99.182817 
2441.902360  	99.236819 
2443.327872  	99.327557 
2444.753385  	99.337699 
2446.178897  	99.298986 
2447.604409  	99.229061 
2449.029921  	99.144360 
2450.455433  	99.150759 
2451.880945  	99.238679 
2453.306458  	99.290853 
2454.731970  	99.276975 
2456.157482  	99.255359 
2457.582994  	99.230435 
2459.008506  	99.184537 
2460.434019  	99.196002 
2461.859531  	99.248821 
2463.285043  	99.240952 
2464.710555  	99.240591 
2466.136067  	99.260062 
2467.561579  	99.234971 
2468.987092  	99.249511 
2470.412604  	99.243453 
2471.838116  	99.137036 
2473.263628  	99.121772 
2474.689140  	99.201657 
2476.114653  	99.217350 
2477.540165  	99.224411 
2478.965677  	99.271146 
2480.391189  	99.333572 
2481.816701  	99.366949 
2483.242213  	99.298138 
2484.667726  	99.219124 
2486.093238  	99.194410 
2487.518750  	99.167679 
2488.944262  	99.230138 
2490.369774  	99.340965 
2491.795286  	99.333270 
2493.220799  	99.314699 
2494.646311  	99.317128 
2496.071823  	99.228315 
2497.497335  	99.195064 
2498.922847  	99.270257 
2500.348360  	99.271662 
2501.773872  	99.211983 
2503.199384  	99.190713 
2504.624896  	99.193371 
2506.050408  	99.195855 
2507.475920  	99.163332 
2508.901433  	99.120558 
2510.326945  	99.154666 
2511.752457  	99.224817 
2513.177969  	99.237996 
2514.603481  	99.216513 
2516.028993  	99.222022 
2517.454506  	99.249652 
2518.880018  	99.222640 
2520.305530  	99.135636 
2521.731042  	99.126359 
2523.156554  	99.232241 
2524.582067  	99.308370 
2526.007579  	99.288210 
2527.433091  	99.242206 
2528.858603  	99.217766 
2530.284115  	99.209500 
2531.709627  	99.216773 
2533.135140  	99.217441 
2534.560652  	99.172039 
2535.986164  	99.147932 
2537.411676  	99.210737 
2538.837188  	99.236627 
2540.262701  	99.190964 
2541.688213  	99.228085 
2543.113725  	99.314416 
2544.539237  	99.333908 
2545.964749  	99.326473 
2547.390261  	99.284913 
2548.815774  	99.213565 
2550.241286  	99.206140 
2551.666798  	99.228071 
2553.092310  	99.211308 
2554.517822  	99.188107 
2555.943334  	99.185802 
2557.368847  	99.215898 
2558.794359  	99.254798 
2560.219871  	99.283510 
2561.645383  	99.320261 
2563.070895  	99.299591 
2564.496408  	99.212778 
2565.921920  	99.176632 
2567.347432  	99.187948 
2568.772944  	99.203446 
2570.198456  	99.229749 
2571.623968  	99.203658 
2573.049481  	99.158541 
2574.474993  	99.197075 
2575.900505  	99.244874 
2577.326017  	99.227992 
2578.751529  	99.195710 
2580.177041  	99.171112 
2581.602554  	99.163018 
2583.028066  	99.186567 
2584.453578  	99.222441 
2585.879090  	99.249457 
2587.304602  	99.242537 
2588.730115  	99.186641 
2590.155627  	99.149329 
2591.581139  	99.212715 
2593.006651  	99.295831 
2594.432163  	99.252731 
2595.857675  	99.158075 
2597.283188  	99.172691 
2598.708700  	99.250300 
2600.134212  	99.267808 
2601.559724  	99.211939 
2602.985236  	99.162994 
2604.410749  	99.189687 
2605.836261  	99.224523 
2607.261773  	99.220252 
2608.687285  	99.251107 
2610.112797  	99.263275 
2611.538309  	99.213356 
2612.963822  	99.244710 
2614.389334  	99.305787 
2615.814846  	99.256211 
2617.240358  	99.235587 
2618.665870  	99.276508 
2620.091382  	99.226835 
2621.516895  	99.173997 
2622.942407  	99.204593 
2624.367919  	99.198245 
2625.793431  	99.153127 
2627.218943  	99.147899 
2628.644456  	99.167189 
2630.069968  	99.188837 
2631.495480  	99.192406 
2632.920992  	99.202735 
2634.346504  	99.264597 
2635.772016  	99.286856 
2637.197529  	99.226743 
2638.623041  	99.193429 
2640.048553  	99.189532 
2641.474065  	99.162909 
2642.899577  	99.151717 
2644.325089  	99.157146 
2645.750602  	99.160889 
2647.176114  	99.171569 
2648.601626  	99.167879 
2650.027138  	99.162512 
2651.452650  	99.179860 
2652.878163  	99.190435 
2654.303675  	99.184557 
2655.729187  	99.176331 
2657.154699  	99.186554 
2658.580211  	99.234721 
2660.005723  	99.270775 
2661.431236  	99.252722 
2662.856748  	99.225169 
2664.282260  	99.220844 
2665.707772  	99.226760 
2667.133284  	99.224424 
2668.558796  	99.218353 
2669.984309  	99.238129 
2671.409821  	99.259472 
2672.835333  	99.241280 
2674.260845  	99.219994 
2675.686357  	99.221759 
2677.111870  	99.234230 
2678.537382  	99.257537 
2679.962894  	99.260829 
2681.388406  	99.232703 
2682.813918  	99.217858 
2684.239430  	99.218868 
2685.664943  	99.220956 
2687.090455  	99.231559 
2688.515967  	99.228373 
2689.941479  	99.216288 
2691.366991  	99.241655 
2692.792504  	99.281066 
2694.218016  	99.281131 
2695.643528  	99.263548 
2697.069040  	99.257955 
2698.494552  	99.243239 
2699.920064  	99.215678 
2701.345577  	99.199979 
2702.771089  	99.203979 
2704.196601  	99.222148 
2705.622113  	99.233923 
2707.047625  	99.224672 
2708.473137  	99.217075 
2709.898650  	99.219013 
2711.324162  	99.214329 
2712.749674  	99.218121 
2714.175186  	99.247004 
2715.600698  	99.275178 
2717.026211  	99.264826 
2718.451723  	99.226820 
2719.877235  	99.211557 
2721.302747  	99.221999 
2722.728259  	99.231982 
2724.153771  	99.246680 
2725.579284  	99.254308 
2727.004796  	99.237684 
2728.430308  	99.213210 
2729.855820  	99.205746 
2731.281332  	99.232746 
2732.706844  	99.247306 
2734.132357  	99.213091 
2735.557869  	99.210259 
2736.983381  	99.237405 
2738.408893  	99.217529 
2739.834405  	99.209715 
2741.259918  	99.231141 
2742.685430  	99.223673 
2744.110942  	99.234386 
2745.536454  	99.255482 
2746.961966  	99.235720 
2748.387478  	99.228098 
2749.812991  	99.231888 
2751.238503  	99.211408 
2752.664015  	99.195211 
2754.089527  	99.195054 
2755.515039  	99.226726 
2756.940552  	99.265739 
2758.366064  	99.250828 
2759.791576  	99.225223 
2761.217088  	99.216117 
2762.642600  	99.193587 
2764.068112  	99.195084 
2765.493625  	99.214466 
2766.919137  	99.216795 
2768.344649  	99.227404 
2769.770161  	99.222888 
2771.195673  	99.189644 
2772.621185  	99.181388 
2774.046698  	99.204287 
2775.472210  	99.224156 
2776.897722  	99.213658 
2778.323234  	99.198460 
2779.748746  	99.226793 
2781.174259  	99.240399 
2782.599771  	99.204676 
2784.025283  	99.200124 
2785.450795  	99.228468 
2786.876307  	99.234463 
2788.301819  	99.227115 
2789.727332  	99.233457 
2791.152844  	99.256790 
2792.578356  	99.250428 
2794.003868  	99.208458 
2795.429380  	99.204191 
2796.854892  	99.218622 
2798.280405  	99.202039 
2799.705917  	99.198144 
2801.131429  	99.223218 
2802.556941  	99.256735 
2803.982453  	99.261574 
2805.407966  	99.200538 
2806.833478  	99.161444 
2808.258990  	99.200365 
2809.684502  	99.213747 
2811.110014  	99.181834 
2812.535526  	99.177561 
2813.961039  	99.185347 
2815.386551  	99.170060 
2816.812063  	99.152843 
2818.237575  	99.155835 
2819.663087  	99.164596 
2821.088600  	99.172391 
2822.514112  	99.191385 
2823.939624  	99.184085 
2825.365136  	99.154491 
2826.790648  	99.186045 
2828.216160  	99.237039 
2829.641673  	99.226113 
2831.067185  	99.219562 
2832.492697  	99.241698 
2833.918209  	99.227994 
2835.343721  	99.190479 
2836.769233  	99.169847 
2838.194746  	99.183291 
2839.620258  	99.237143 
2841.045770  	99.283494 
2842.471282  	99.274764 
2843.896794  	99.245594 
2845.322307  	99.262293 
2846.747819  	99.307815 
2848.173331  	99.303045 
2849.598843  	99.276926 
2851.024355  	99.313433 
2852.449867  	99.346313 
2853.875380  	99.294423 
2855.300892  	99.243904 
2856.726404  	99.261682 
2858.151916  	99.266871 
2859.577428  	99.217679 
2861.002940  	99.183227 
2862.428453  	99.186952 
2863.853965  	99.199492 
2865.279477  	99.217513 
2866.704989  	99.203873 
2868.130501  	99.150868 
2869.556014  	99.147285 
2870.981526  	99.171381 
2872.407038  	99.129867 
2873.832550  	99.097988 
2875.258062  	99.129041 
2876.683574  	99.133198 
2878.109087  	99.113052 
2879.534599  	99.115086 
2880.960111  	99.106406 
2882.385623  	99.085873 
2883.811135  	99.063592 
2885.236647  	99.039456 
2886.662160  	99.052169 
2888.087672  	99.076495 
2889.513184  	99.073713 
2890.938696  	99.103587 
2892.364208  	99.161557 
2893.789721  	99.161822 
2895.215233  	99.116415 
2896.640745  	99.090969 
2898.066257  	99.099465 
2899.491769  	99.114326 
2900.917281  	99.117131 
2902.342794  	99.133656 
2903.768306  	99.160453 
2905.193818  	99.161384 
2906.619330  	99.157293 
2908.044842  	99.165852 
2909.470355  	99.186256 
2910.895867  	99.241301 
2912.321379  	99.291910 
2913.746891  	99.301743 
2915.172403  	99.300117 
2916.597915  	99.259081 
2918.023428  	99.196633 
2919.448940  	99.218550 
2920.874452  	99.291532 
2922.299964  	99.325731 
2923.725476  	99.323237 
2925.150988  	99.277254 
2926.576501  	99.204054 
2928.002013  	99.161621 
2929.427525  	99.157284 
2930.853037  	99.180706 
2932.278549  	99.211499 
2933.704062  	99.214404 
2935.129574  	99.197062 
2936.555086  	99.178761 
2937.980598  	99.178095 
2939.406110  	99.197608 
2940.831622  	99.181362 
2942.257135  	99.147152 
2943.682647  	99.182855 
2945.108159  	99.229282 
2946.533671  	99.203296 
2947.959183  	99.194073 
2949.384695  	99.248796 
2950.810208  	99.280934 
2952.235720  	99.285618 
2953.661232  	99.307643 
2955.086744  	99.307365 
2956.512256  	99.289066 
2957.937769  	99.315279 
2959.363281  	99.351801 
2960.788793  	99.345193 
2962.214305  	99.303580 
2963.639817  	99.229256 
2965.065329  	99.171206 
2966.490842  	99.177222 
2967.916354  	99.176912 
2969.341866  	99.148533 
2970.767378  	99.160957 
2972.192890  	99.173230 
2973.618403  	99.131610 
2975.043915  	99.116953 
2976.469427  	99.174139 
2977.894939  	99.229389 
2979.320451  	99.238775 
2980.745963  	99.254564 
2982.171476  	99.304916 
2983.596988  	99.313934 
2985.022500  	99.255143 
2986.448012  	99.217387 
2987.873524  	99.223756 
2989.299036  	99.226127 
2990.724549  	99.233520 
2992.150061  	99.258350 
2993.575573  	99.285033 
2995.001085  	99.305272 
2996.426597  	99.312750 
2997.852110  	99.320209 
2999.277622  	99.308423 
3000.703134  	99.240470 
3002.128646  	99.192522 
3003.554158  	99.233233 
3004.979670  	99.298222 
3006.405183  	99.326300 
3007.830695  	99.288820 
3009.256207  	99.214480 
3010.681719  	99.219467 
3012.107231  	99.274955 
3013.532743  	99.254072 
3014.958256  	99.206638 
3016.383768  	99.198333 
3017.809280  	99.194651 
3019.234792  	99.198932 
3020.660304  	99.211247 
3022.085817  	99.223272 
3023.511329  	99.245770 
3024.936841  	99.247722 
3026.362353  	99.238403 
3027.787865  	99.240431 
3029.213377  	99.215436 
3030.638890  	99.214119 
3032.064402  	99.269425 
3033.489914  	99.255011 
3034.915426  	99.171523 
3036.340938  	99.138198 
3037.766450  	99.143534 
3039.191963  	99.161510 
3040.617475  	99.189337 
3042.042987  	99.175860 
3043.468499  	99.164869 
3044.894011  	99.209192 
3046.319524  	99.228471 
3047.745036  	99.185778 
3049.170548  	99.116255 
3050.596060  	99.064412 
3052.021572  	99.106492 
3053.447084  	99.184554 
3054.872597  	99.168727 
3056.298109  	99.115622 
3057.723621  	99.082723 
3059.149133  	99.042436 
3060.574645  	99.055867 
3062.000158  	99.085406 
3063.425670  	99.020908 
3064.851182  	98.965934 
3066.276694  	99.021614 
3067.702206  	99.101629 
3069.127718  	99.115279 
3070.553231  	99.058168 
3071.978743  	99.023849 
3073.404255  	99.056200 
3074.829767  	99.059345 
3076.255279  	99.041340 
3077.680791  	99.058469 
3079.106304  	99.037587 
3080.531816  	99.005900 
3081.957328  	99.046275 
3083.382840  	99.067629 
3084.808352  	99.021513 
3086.233865  	98.995825 
3087.659377  	99.006492 
3089.084889  	99.013890 
3090.510401  	99.022316 
3091.935913  	99.010968 
3093.361425  	98.948420 
3094.786938  	98.907403 
3096.212450  	98.944823 
3097.637962  	98.973561 
3099.063474  	98.969940 
3100.488986  	98.995823 
3101.914498  	99.006406 
3103.340011  	98.972214 
3104.765523  	98.957163 
3106.191035  	98.970406 
3107.616547  	98.980624 
3109.042059  	98.987254 
3110.467572  	99.009351 
3111.893084  	98.997863 
3113.318596  	98.880780 
3114.744108  	98.804515 
3116.169620  	98.895815 
3117.595132  	98.954693 
3119.020645  	98.906705 
3120.446157  	98.894511 
3121.871669  	98.867195 
3123.297181  	98.826881 
3124.722693  	98.904796 
3126.148206  	98.973857 
3127.573718  	98.916966 
3128.999230  	98.879158 
3130.424742  	98.904416 
3131.850254  	98.890318 
3133.275766  	98.836808 
3134.701279  	98.797215 
3136.126791  	98.777089 
3137.552303  	98.785279 
3138.977815  	98.816883 
3140.403327  	98.822665 
3141.828839  	98.805919 
3143.254352  	98.812468 
3144.679864  	98.820366 
3146.105376  	98.821797 
3147.530888  	98.849959 
3148.956400  	98.865357 
3150.381913  	98.846653 
3151.807425  	98.831350 
3153.232937  	98.792558 
3154.658449  	98.745500 
3156.083961  	98.788687 
3157.509473  	98.858421 
3158.934986  	98.813405 
3160.360498  	98.733471 
3161.786010  	98.739288 
3163.211522  	98.763199 
3164.637034  	98.760801 
3166.062546  	98.767420 
3167.488059  	98.751091 
3168.913571  	98.705909 
3170.339083  	98.674333 
3171.764595  	98.664417 
3173.190107  	98.676587 
3174.615620  	98.668508 
3176.041132  	98.640653 
3177.466644  	98.672054 
3178.892156  	98.703442 
3180.317668  	98.682019 
3181.743180  	98.688155 
3183.168693  	98.678283 
3184.594205  	98.654285 
3186.019717  	98.699342 
3187.445229  	98.673851 
3188.870741  	98.577262 
3190.296254  	98.601800 
3191.721766  	98.649173 
3193.147278  	98.634301 
3194.572790  	98.666124 
3195.998302  	98.697388 
3197.423814  	98.699152 
3198.849327  	98.713446 
3200.274839  	98.690957 
3201.700351  	98.665117 
3203.125863  	98.650715 
3204.551375  	98.608010 
3205.976887  	98.600851 
3207.402400  	98.590666 
3208.827912  	98.557094 
3210.253424  	98.609178 
3211.678936  	98.627676 
3213.104448  	98.553352 
3214.529961  	98.546877 
3215.955473  	98.525596 
3217.380985  	98.477262 
3218.806497  	98.572050 
3220.232009  	98.616839 
3221.657521  	98.498107 
3223.083034  	98.479511 
3224.508546  	98.557607 
3225.934058  	98.566984 
3227.359570  	98.558683 
3228.785082  	98.576763 
3230.210594  	98.582962 
3231.636107  	98.559462 
3233.061619  	98.558436 
3234.487131  	98.632366 
3235.912643  	98.656870 
3237.338155  	98.536394 
3238.763668  	98.396999 
3240.189180  	98.369786 
3241.614692  	98.479727 
3243.040204  	98.578824 
3244.465716  	98.504973 
3245.891228  	98.413943 
3247.316741  	98.462127 
3248.742253  	98.515337 
3250.167765  	98.499673 
3251.593277  	98.476779 
3253.018789  	98.485362 
3254.444301  	98.507082 
3255.869814  	98.486494 
3257.295326  	98.453243 
3258.720838  	98.437252 
3260.146350  	98.433065 
3261.571862  	98.486116 
3262.997375  	98.467780 
3264.422887  	98.331577 
3265.848399  	98.393881 
3267.273911  	98.630501 
3268.699423  	98.668051 
3270.124935  	98.523088 
3271.550448  	98.390998 
3272.975960  	98.346184 
3274.401472  	98.414978 
3275.826984  	98.486887 
3277.252496  	98.488958 
3278.678009  	98.468571 
3280.103521  	98.437993 
3281.529033  	98.420504 
3282.954545  	98.418232 
3284.380057  	98.463409 
3285.805569  	98.574610 
3287.231082  	98.572696 
3288.656594  	98.462983 
3290.082106  	98.442483 
3291.507618  	98.429487 
3292.933130  	98.402392 
3294.358642  	98.448658 
3295.784155  	98.430146 
3297.209667  	98.414512 
3298.635179  	98.539500 
3300.060691  	98.586507 
3301.486203  	98.527335 
3302.911716  	98.538024 
3304.337228  	98.543006 
3305.762740  	98.493697 
3307.188252  	98.432585 
3308.613764  	98.337904 
3310.039276  	98.327172 
3311.464789  	98.463870 
3312.890301  	98.548900 
3314.315813  	98.540103 
3315.741325  	98.581827 
3317.166837  	98.578850 
3318.592349  	98.471533 
3320.017862  	98.484628 
3321.443374  	98.553987 
3322.868886  	98.454933 
3324.294398  	98.400691 
3325.719910  	98.509418 
3327.145423  	98.555347 
3328.570935  	98.572821 
3329.996447  	98.629348 
3331.421959  	98.594150 
3332.847471  	98.551061 
3334.272983  	98.593150 
3335.698496  	98.602079 
3337.124008  	98.560408 
3338.549520  	98.525634 
3339.975032  	98.499999 
3341.400544  	98.502714 
3342.826057  	98.528089 
3344.251569  	98.540564 
3345.677081  	98.533448 
3347.102593  	98.536206 
3348.528105  	98.572568 
3349.953617  	98.612101 
3351.379130  	98.634267 
3352.804642  	98.642266 
3354.230154  	98.624934 
3355.655666  	98.608005 
3357.081178  	98.604596 
3358.506690  	98.631000 
3359.932203  	98.732237 
3361.357715  	98.795391 
3362.783227  	98.715201 
3364.208739  	98.621358 
3365.634251  	98.571098 
3367.059764  	98.540444 
3368.485276  	98.592816 
3369.910788  	98.664016 
3371.336300  	98.684755 
3372.761812  	98.702056 
3374.187324  	98.651452 
3375.612837  	98.565698 
3377.038349  	98.569638 
3378.463861  	98.565303 
3379.889373  	98.576486 
3381.314885  	98.693363 
3382.740397  	98.721718 
3384.165910  	98.707386 
3385.591422  	98.810099 
3387.016934  	98.791262 
3388.442446  	98.673770 
3389.867958  	98.704049 
3391.293471  	98.733798 
3392.718983  	98.722710 
3394.144495  	98.765599 
3395.570007  	98.713760 
3396.995519  	98.624643 
3398.421031  	98.638808 
3399.846544  	98.704493 
3401.272056  	98.846738 
3402.697568  	98.948328 
3404.123080  	98.924257 
3405.548592  	98.981048 
3406.974105  	99.020921 
3408.399617  	98.934384 
3409.825129  	98.936338 
3411.250641  	98.900902 
3412.676153  	98.762733 
3414.101665  	98.816347 
3415.527178  	98.914777 
3416.952690  	98.862701 
3418.378202  	98.845531 
3419.803714  	98.823399 
3421.229226  	98.770698 
3422.654738  	98.831830 
3424.080251  	98.872700 
3425.505763  	98.869406 
3426.931275  	98.931022 
3428.356787  	98.905013 
3429.782299  	98.803601 
3431.207812  	98.818539 
3432.633324  	98.907421 
3434.058836  	99.014598 
3435.484348  	99.089830 
3436.909860  	99.032951 
3438.335372  	98.984476 
3439.760885  	99.027844 
3441.186397  	98.974627 
3442.611909  	98.862705 
3444.037421  	98.907470 
3445.462933  	99.018943 
3446.888445  	98.991138 
3448.313958  	98.875710 
3449.739470  	98.857135 
3451.164982  	98.909653 
3452.590494  	98.944328 
3454.016006  	99.008764 
3455.441519  	99.073131 
3456.867031  	99.039885 
3458.292543  	99.001194 
3459.718055  	99.038016 
3461.143567  	99.098442 
3462.569079  	99.154531 
3463.994592  	99.161091 
3465.420104  	99.104612 
3466.845616  	99.057556 
3468.271128  	99.064777 
3469.696640  	99.117334 
3471.122152  	99.155914 
3472.547665  	99.159841 
3473.973177  	99.176870 
3475.398689  	99.193043 
3476.824201  	99.211714 
3478.249713  	99.200892 
3479.675226  	99.094001 
3481.100738  	99.075180 
3482.526250  	99.189398 
3483.951762  	99.197904 
3485.377274  	99.208888 
3486.802786  	99.290272 
3488.228299  	99.263990 
3489.653811  	99.259893 
3491.079323  	99.283001 
3492.504835  	99.165556 
3493.930347  	99.107926 
3495.355860  	99.172259 
3496.781372  	99.243567 
3498.206884  	99.406206 
3499.632396  	99.500953 
3501.057908  	99.361534 
3502.483420  	99.233530 
3503.908933  	99.228266 
3505.334445  	99.174888 
3506.759957  	99.106461 
3508.185469  	99.156181 
3509.610981  	99.241505 
3511.036493  	99.248150 
3512.462006  	99.314261 
3513.887518  	99.413604 
3515.313030  	99.402319 
3516.738542  	99.466439 
3518.164054  	99.610150 
3519.589567  	99.586168 
3521.015079  	99.497402 
3522.440591  	99.403754 
3523.866103  	99.261089 
3525.291615  	99.272209 
3526.717127  	99.402241 
3528.142640  	99.458518 
3529.568152  	99.399244 
3530.993664  	99.241094 
3532.419176  	99.170345 
3533.844688  	99.286239 
3535.270200  	99.414458 
3536.695713  	99.487759 
3538.121225  	99.543756 
3539.546737  	99.624375 
3540.972249  	99.539703 
3542.397761  	99.504844 
3543.823274  	99.513940 
3545.248786  	99.536079 
3546.674298  	99.557041 
3548.099810  	99.572246 
3549.525322  	99.583688 
3550.950834  	99.595168 
3552.376347  	99.601198 
3553.801859  	99.600531 
3555.227371  	99.586766 
3556.652883  	99.575965 
3558.078395  	99.580055 
3559.503908  	99.570606 
3560.929420  	99.566174 
3562.354932  	99.566099 
3563.780444  	99.564873 
3565.205956  	99.562574 
3566.631468  	99.564057 
3568.056981  	99.572375 
3569.482493  	99.582057 
3570.908005  	99.557347 
3572.333517  	99.405265 
3573.759029  	99.593726 
3575.184541  	99.619379 
3576.610054  	99.625575 
3578.035566  	99.623838 
3579.461078  	99.625800 
3580.886590  	99.646809 
3582.312102  	99.674997 
3583.737615  	99.677133 
3585.163127  	99.686760 
3586.588639  	99.697642 
3588.014151  	99.704399 
3589.439663  	99.708484 
3590.865175  	99.708820 
3592.290688  	99.721808 
3593.716200  	99.731059 
3595.141712  	99.734903 
3596.567224  	99.740261 
3597.992736  	99.747254 
3599.418248  	99.750236 
3600.843761  	99.747718 
3602.269273  	99.755343 
3603.694785  	99.778781 
3605.120297  	99.797391 
3606.545809  	99.805193 
3607.971322  	99.808471 
3609.396834  	99.810352 
3610.822346  	99.812507 
3612.247858  	99.821426 
3613.673370  	99.838477 
3615.098882  	99.856348 
3616.524395  	99.867357 
3617.949907  	99.859870 
3619.375419  	99.838046 
3620.800931  	99.810210 
3622.226443  	99.789869 
3623.651955  	99.803225 
3625.077468  	99.808370 
3626.502980  	99.806921 
3627.928492  	99.815373 
3629.354004  	99.831280 
3630.779516  	99.856681 
3632.205029  	99.869328 
3633.630541  	99.921377 
3635.056053  	99.944817 
3636.481565  	99.800095 
3637.907077  	99.921865 
3639.332589  	100.062882 
3640.758102  	100.187402 
3642.183614  	100.176394 
3643.609126  	100.429122 
3645.034638  	100.083909 
3646.460150  	100.018401 
3647.885663  	99.998893 
3649.311175  	99.989240 
3650.736687  	99.983108 
3652.162199  	99.950166 
3653.587711  	99.774555 
3655.013223  	99.977016 
3656.438736  	100.008490 
3657.864248  	99.986326 
3659.289760  	99.769804 
3660.715272  	99.879856 
3662.140784  	100.071803 
3663.566296  	100.283843 
3664.991809  	100.358153 
3666.417321  	100.139718 
3667.842833  	100.110485 
3669.268345  	100.104675 
3670.693857  	100.113137 
3672.119370  	100.134841 
3673.544882  	100.156439 
3674.970394  	100.176434 
3676.395906  	100.180851 
3677.821418  	100.157233 
3679.246930  	100.118568 
3680.672443  	100.073063 
3682.097955  	99.979418 
3683.523467  	100.157304 
3684.948979  	100.153257 
3686.374491  	100.059589 
3687.800003  	100.053565 
3689.225516  	100.061451 
3690.651028  	100.075663 
3692.076540  	100.089611 
3693.502052  	100.086210 
3694.927564  	100.038143 
3696.353077  	100.127755 
3697.778589  	100.199248 
3699.204101  	100.110529 
3700.629613  	100.077038 
3702.055125  	100.049749 
3703.480637  	100.035383 
3704.906150  	100.058880 
3706.331662  	100.063106 
3707.757174  	100.071045 
3709.182686  	100.078487 
3710.608198  	100.077221 
3712.033711  	100.074568 
3713.459223  	100.073523 
3714.884735  	100.044314 
3716.310247  	99.748337 
3717.735759  	100.090754 
3719.161271  	100.120265 
3720.586784  	100.147104 
3722.012296  	100.160639 
3723.437808  	100.158991 
3724.863320  	100.150154 
3726.288832  	100.148675 
3727.714344  	100.159499 
3729.139857  	100.185288 
3730.565369  	100.216314 
3731.990881  	100.253257 
3733.416393  	100.290239 
3734.841905  	100.274780 
3736.267418  	100.247752 
3737.692930  	100.230445 
3739.118442  	100.224480 
3740.543954  	100.227184 
3741.969466  	100.217397 
3743.394978  	100.189781 
3744.820491  	100.144798 
3746.246003  	100.097679 
3747.671515  	100.079842 
3749.097027  	100.106265 
3750.522539  	100.119437 
3751.948051  	100.118337 
3753.373564  	100.118694 
3754.799076  	100.097190 
3756.224588  	100.088909 
3757.650100  	100.057711 
3759.075612  	100.053198 
3760.501125  	100.057907 
3761.926637  	100.038232 
3763.352149  	100.053769 
3764.777661  	100.091123 
3766.203173  	100.120124 
3767.628685  	100.140869 
3769.054198  	100.150905 
3770.479710  	100.142903 
3771.905222  	100.130373 
3773.330734  	100.051913 
3774.756246  	100.127912 
3776.181759  	100.144195 
3777.607271  	100.114521 
3779.032783  	100.101940 
3780.458295  	100.104967 
3781.883807  	100.107885 
3783.309319  	100.118430 
3784.734832  	100.138754 
3786.160344  	100.148714 
3787.585856  	100.142394 
3789.011368  	100.127705 
3790.436880  	100.207739 
3791.862392  	100.190524 
3793.287905  	100.221572 
3794.713417  	100.148671 
3796.138929  	100.148202 
3797.564441  	100.148457 
3798.989953  	100.151105 
3800.415466  	100.163985 
3801.840978  	100.181582 
3803.266490  	100.201949 
3804.692002  	100.214735 
3806.117514  	100.229985 
3807.543026  	100.213426 
3808.968539  	100.180369 
3810.394051  	100.062048 
3811.819563  	100.236284 
3813.245075  	100.214769 
3814.670587  	100.155751 
3816.096099  	100.165590 
3817.521612  	100.181295 
3818.947124  	100.192281 
3820.372636  	100.213711 
3821.798148  	100.229911 
3823.223660  	100.229474 
3824.649173  	100.202986 
3826.074685  	100.234579 
3827.500197  	100.218333 
3828.925709  	100.184645 
3830.351221  	100.151160 
3831.776733  	100.135679 
3833.202246  	100.127066 
3834.627758  	100.126991 
3836.053270  	100.148523 
3837.478782  	100.192487 
3838.904294  	100.233448 
3840.329806  	100.256034 
3841.755319  	100.264305 
3843.180831  	100.238967 
3844.606343  	100.178235 
3846.031855  	100.093733 
3847.457367  	100.309042 
3848.882880  	100.299945 
3850.308392  	100.229124 
3851.733904  	100.211962 
3853.159416  	100.226568 
3854.584928  	100.222291 
3856.010440  	100.182907 
3857.435953  	100.128590 
3858.861465  	100.111955 
3860.286977  	100.224426 
3861.712489  	100.224198 
3863.138001  	100.188143 
3864.563514  	100.139280 
3865.989026  	100.102703 
3867.414538  	100.109978 
3868.840050  	100.166963 
3870.265562  	100.208939 
3871.691074  	100.212777 
3873.116587  	100.203333 
3874.542099  	100.195865 
3875.967611  	100.177581 
3877.393123  	100.160492 
3878.818635  	100.151414 
3880.244147  	100.161024 
3881.669660  	100.166501 
3883.095172  	100.160726 
3884.520684  	100.172021 
3885.946196  	100.197318 
3887.371708  	100.221791 
3888.797221  	100.232439 
3890.222733  	100.251391 
3891.648245  	100.232746 
3893.073757  	100.194770 
3894.499269  	100.160248 
3895.924781  	100.157162 
3897.350294  	100.160907 
3898.775806  	100.154805 
3900.201318  	100.149377 
3901.626830  	100.154421 
3903.052342  	100.154166 
3904.477854  	100.150813 
3905.903367  	100.148317 
3907.328879  	100.126666 
3908.754391  	99.957135 
3910.179903  	100.075962 
3911.605415  	100.125662 
3913.030928  	100.299957 
3914.456440  	100.124322 
3915.881952  	100.114539 
3917.307464  	100.135917 
3918.732976  	100.157997 
3920.158488  	100.173557 
3921.584001  	100.180281 
3923.009513  	100.179339 
3924.435025  	100.177160 
3925.860537  	100.169740 
3927.286049  	100.165910 
3928.711562  	100.161769 
3930.137074  	100.156825 
3931.562586  	100.155932 
3932.988098  	100.158445 
3934.413610  	100.159302 
3935.839122  	100.082643 
3937.264635  	100.162834 
3938.690147  	100.168551 
3940.115659  	100.166928 
3941.541171  	100.166503 
3942.966683  	100.169354 
3944.392195  	100.174380 
3945.817708  	100.180681 
3947.243220  	100.188245 
3948.668732  	100.194687 
3950.094244  	100.198133 
3951.519756  	100.199263 
3952.945269  	100.199607 
3954.370781  	100.199497 
3955.796293  	100.203222 
3957.221805  	100.207708 
3958.647317  	100.175695 
3960.072829  	100.191417 
3961.498342  	100.229631 
3962.923854  	100.242280 
3964.349366  	100.234554 
3965.774878  	100.239934 
3967.200390  	100.263969 
3968.625902  	100.266438 
3970.051415  	100.258620 
3971.476927  	100.270330 
3972.902439  	100.243135 
3974.327951  	100.153009 
3975.753463  	100.116934 
3977.178976  	100.184736 
3978.604488  	100.248436 
3980.030000  	100.280250 
3981.455512  	100.318674 
3982.881024  	100.304227 
3984.306536  	100.255927 
3985.732049  	100.279074 
3987.157561  	100.322924 
3988.583073  	100.306684 
3990.008585  	100.280958 
3991.434097  	100.288726 
3992.859610  	100.300231 
3994.285122  	100.295182 
3995.710634  	100.298908 
3997.136146  	100.320903 
3998.561658  	100.326114 
3999.987170  	100.303130 