##TITLE=EP ATR
##DATA TYPE=INFRARED SPECTRUM
##XUNITS=1/CM
##YUNITS=%T
500.354774  	93.285939 
501.780287  	92.446017 
503.205799  	93.242998 
504.631311  	93.777935 
506.056823  	92.916997 
507.482335  	92.827992 
508.907847  	93.260675 
510.333360  	93.337024 
511.758872  	93.723907 
513.184384  	93.770649 
514.609896  	93.346887 
516.035408  	93.283381 
517.460920  	93.287405 
518.886433  	93.138894 
520.311945  	93.149512 
521.737457  	93.342332 
523.162969  	93.438434 
524.588481  	93.276535 
526.013994  	93.283192 
527.439506  	93.400594 
528.865018  	93.222070 
530.290530  	93.186290 
531.716042  	93.487262 
533.141554  	93.920396 
534.567067  	94.385314 
535.992579  	94.453942 
537.418091  	94.172549 
538.843603  	94.041116 
540.269115  	94.101956 
541.694627  	94.286428 
543.120140  	94.288279 
544.545652  	94.133202 
545.971164  	94.366239 
547.396676  	94.577937 
548.822188  	94.234162 
550.247701  	93.941545 
551.673213  	94.223028 
553.098725  	94.754138 
554.524237  	94.823588 
555.949749  	94.370946 
557.375261  	94.199114 
558.800774  	94.257553 
560.226286  	94.002369 
561.651798  	93.807870 
563.077310  	93.986457 
564.502822  	94.185337 
565.928335  	94.200503 
567.353847  	94.182615 
568.779359  	94.286713 
570.204871  	94.366685 
571.630383  	94.295240 
573.055895  	94.170383 
574.481408  	93.992120 
575.906920  	93.813990 
577.332432  	93.812431 
578.757944  	93.991056 
580.183456  	94.215022 
581.608968  	94.245131 
583.034481  	94.216180 
584.459993  	94.422790 
585.885505  	94.652526 
587.311017  	94.871808 
588.736529  	95.183316 
590.162042  	95.196636 
591.587554  	94.982786 
593.013066  	95.007171 
594.438578  	95.093468 
595.864090  	95.081375 
597.289602  	95.051205 
598.715115  	94.955993 
600.140627  	94.898854 
601.566139  	95.017749 
602.991651  	95.200400 
604.417163  	95.205009 
605.842675  	95.228766 
607.268188  	95.347550 
608.693700  	95.315268 
610.119212  	95.345461 
611.544724  	95.265097 
612.970236  	95.354167 
614.395749  	95.397207 
615.821261  	95.444984 
617.246773  	95.482401 
618.672285  	95.521662 
620.097797  	95.545076 
621.523309  	95.458230 
622.948822  	95.614120 
624.374334  	95.676237 
625.799846  	95.713043 
627.225358  	95.752539 
628.650870  	95.825188 
630.076383  	95.911547 
631.501895  	95.997557 
632.927407  	95.910451 
634.352919  	95.879603 
635.778431  	95.893424 
637.203943  	95.984572 
638.629456  	95.866141 
640.054968  	95.918718 
641.480480  	95.864873 
642.905992  	95.902179 
644.331504  	95.947216 
645.757016  	95.905346 
647.182529  	95.970266 
648.608041  	95.974088 
650.033553  	95.980563 
651.459065  	95.991913 
652.884577  	96.005648 
654.310090  	96.018635 
655.735602  	96.029951 
657.161114  	96.037141 
658.586626  	96.039311 
660.012138  	96.040854 
661.437650  	96.045103 
662.863163  	96.047246 
664.288675  	96.073547 
665.714187  	96.063508 
667.139699  	96.080288 
668.565211  	96.094385 
669.990723  	96.104570 
671.416236  	95.941098 
672.841748  	96.118177 
674.267260  	96.061804 
675.692772  	96.154769 
677.118284  	96.175980 
678.543797  	96.345786 
679.969309  	96.208549 
681.394821  	96.221727 
682.820333  	96.232695 
684.245845  	96.285951 
685.671357  	96.282020 
687.096870  	96.296972 
688.522382  	96.339782 
689.947894  	96.296255 
691.373406  	96.221129 
692.798918  	96.423509 
694.224430  	96.619018 
695.649943  	96.436988 
697.075455  	96.425980 
698.500967  	96.405506 
699.926479  	96.394290 
701.351991  	96.405964 
702.777504  	96.433091 
704.203016  	96.436869 
705.628528  	96.396618 
707.054040  	96.351777 
708.479552  	96.403248 
709.905064  	96.440585 
711.330577  	96.345730 
712.756089  	96.273274 
714.181601  	96.298826 
715.607113  	96.336632 
717.032625  	96.382655 
718.458138  	96.474486 
719.883650  	96.516019 
721.309162  	96.538642 
722.734674  	96.564212 
724.160186  	96.646098 
725.585698  	96.667469 
727.011211  	96.652882 
728.436723  	96.686168 
729.862235  	96.741957 
731.287747  	96.834396 
732.713259  	96.759111 
734.138771  	96.814249 
735.564284  	97.001467 
736.989796  	97.051326 
738.415308  	96.865688 
739.840820  	96.903100 
741.266332  	96.997463 
742.691845  	96.955788 
744.117357  	96.870861 
745.542869  	96.756891 
746.968381  	96.643130 
748.393893  	96.532046 
749.819405  	96.503803 
751.244918  	96.642454 
752.670430  	96.697724 
754.095942  	96.635087 
755.521454  	96.666091 
756.946966  	96.694064 
758.372478  	96.713812 
759.797991  	96.739531 
761.223503  	96.584189 
762.649015  	96.511085 
764.074527  	96.772885 
765.500039  	96.958356 
766.925552  	96.872951 
768.351064  	96.837829 
769.776576  	96.922913 
771.202088  	96.951247 
772.627600  	96.947425 
774.053112  	96.996190 
775.478625  	97.005888 
776.904137  	96.979021 
778.329649  	97.049254 
779.755161  	97.150278 
781.180673  	97.202432 
782.606186  	97.269454 
784.031698  	97.322071 
785.457210  	97.331707 
786.882722  	97.343276 
788.308234  	97.355479 
789.733746  	97.361424 
791.159259  	97.323779 
792.584771  	97.256289 
794.010283  	97.258212 
795.435795  	97.316000 
796.861307  	97.401846 
798.286819  	97.439212 
799.712332  	97.293807 
801.137844  	97.178587 
802.563356  	97.241535 
803.988868  	97.212332 
805.414380  	97.137106 
806.839893  	97.255596 
808.265405  	97.382271 
809.690917  	97.339682 
811.116429  	97.272092 
812.541941  	97.361613 
813.967453  	97.541284 
815.392966  	97.562538 
816.818478  	97.490662 
818.243990  	97.522769 
819.669502  	97.524330 
821.095014  	97.444929 
822.520526  	97.369302 
823.946039  	97.250120 
825.371551  	97.200926 
826.797063  	97.283003 
828.222575  	97.304867 
829.648087  	97.278668 
831.073600  	97.283879 
832.499112  	97.223797 
833.924624  	97.118394 
835.350136  	97.048878 
836.775648  	97.027876 
838.201160  	97.055209 
839.626673  	97.056330 
841.052185  	97.007560 
842.477697  	96.982421 
843.903209  	96.985179 
845.328721  	96.998454 
846.754234  	96.988618 
848.179746  	96.915465 
849.605258  	96.884991 
851.030770  	96.967340 
852.456282  	97.022719 
853.881794  	96.996144 
855.307307  	97.001526 
856.732819  	97.037944 
858.158331  	97.026315 
859.583843  	97.006509 
861.009355  	97.015046 
862.434867  	97.050536 
863.860380  	97.125354 
865.285892  	97.139396 
866.711404  	97.093543 
868.136916  	97.152648 
869.562428  	97.230834 
870.987941  	97.245969 
872.413453  	97.320677 
873.838965  	97.320505 
875.264477  	97.174660 
876.689989  	97.133630 
878.115501  	97.195898 
879.541014  	97.205884 
880.966526  	97.184971 
882.392038  	97.192161 
883.817550  	97.246802 
885.243062  	97.205125 
886.668574  	97.028604 
888.094087  	96.974276 
889.519599  	96.994720 
890.945111  	96.889389 
892.370623  	96.826853 
893.796135  	96.864634 
895.221648  	96.858843 
896.647160  	96.839653 
898.072672  	96.852437 
899.498184  	96.886089 
900.923696  	96.893180 
902.349208  	96.812001 
903.774721  	96.722701 
905.200233  	96.707538 
906.625745  	96.722101 
908.051257  	96.689502 
909.476769  	96.621730 
910.902281  	96.646129 
912.327794  	96.669151 
913.753306  	96.514620 
915.178818  	96.405467 
916.604330  	96.454722 
918.029842  	96.423486 
919.455355  	96.339920 
920.880867  	96.351219 
922.306379  	96.379981 
923.731891  	96.369649 
925.157403  	96.371002 
926.582915  	96.424600 
928.008428  	96.453552 
929.433940  	96.408727 
930.859452  	96.406841 
932.284964  	96.433826 
933.710476  	96.407169 
935.135989  	96.404843 
936.561501  	96.439641 
937.987013  	96.490526 
939.412525  	96.544694 
940.838037  	96.518730 
942.263549  	96.488327 
943.689062  	96.516334 
945.114574  	96.504899 
946.540086  	96.500126 
947.965598  	96.519885 
949.391110  	96.471522 
950.816622  	96.399851 
952.242135  	96.327070 
953.667647  	96.241345 
955.093159  	96.181609 
956.518671  	96.111889 
957.944183  	96.026954 
959.369696  	95.936530 
960.795208  	95.825712 
962.220720  	95.756416 
963.646232  	95.692216 
965.071744  	95.571078 
966.497256  	95.460516 
967.922769  	95.348602 
969.348281  	95.215656 
970.773793  	95.077863 
972.199305  	94.895043 
973.624817  	94.743857 
975.050329  	94.646441 
976.475842  	94.487483 
977.901354  	94.311450 
979.326866  	94.168580 
980.752378  	94.029085 
982.177890  	93.927304 
983.603403  	93.855588 
985.028915  	93.798011 
986.454427  	93.710493 
987.879939  	93.563679 
989.305451  	93.518269 
990.730963  	93.582625 
992.156476  	93.569883 
993.581988  	93.510626 
995.007500  	93.483547 
996.433012  	93.484981 
997.858524  	93.547007 
999.284037  	93.610103 
1000.709549  	93.628054 
1002.135061  	93.672846 
1003.560573  	93.733133 
1004.986085  	93.742175 
1006.411597  	93.739705 
1007.837110  	93.781233 
1009.262622  	93.805648 
1010.688134  	93.794088 
1012.113646  	93.848659 
1013.539158  	93.926452 
1014.964670  	93.937322 
1016.390183  	93.985387 
1017.815695  	94.104228 
1019.241207  	94.196278 
1020.666719  	94.265623 
1022.092231  	94.370722 
1023.517744  	94.499221 
1024.943256  	94.596777 
1026.368768  	94.686626 
1027.794280  	94.793056 
1029.219792  	94.855284 
1030.645304  	94.926547 
1032.070817  	95.069013 
1033.496329  	95.180351 
1034.921841  	95.235138 
1036.347353  	95.304911 
1037.772865  	95.433926 
1039.198377  	95.574513 
1040.623890  	95.588763 
1042.049402  	95.566662 
1043.474914  	95.652849 
1044.900426  	95.721771 
1046.325938  	95.797434 
1047.751451  	95.967072 
1049.176963  	96.073369 
1050.602475  	96.153516 
1052.027987  	96.324980 
1053.453499  	96.474531 
1054.879011  	96.588781 
1056.304524  	96.727417 
1057.730036  	96.826262 
1059.155548  	96.865802 
1060.581060  	96.952797 
1062.006572  	97.134126 
1063.432085  	97.262842 
1064.857597  	97.286920 
1066.283109  	97.289540 
1067.708621  	97.185082 
1069.134133  	96.989068 
1070.559645  	96.874835 
1071.985158  	96.770845 
1073.410670  	96.626332 
1074.836182  	96.552926 
1076.261694  	96.539427 
1077.687206  	96.573560 
1079.112718  	96.623117 
1080.538231  	96.650799 
1081.963743  	96.758916 
1083.389255  	96.947695 
1084.814767  	97.124016 
1086.240279  	97.246539 
1087.665792  	97.310743 
1089.091304  	97.381696 
1090.516816  	97.440269 
1091.942328  	97.482927 
1093.367840  	97.626457 
1094.793352  	97.762723 
1096.218865  	97.753756 
1097.644377  	97.702989 
1099.069889  	97.673062 
1100.495401  	97.670826 
1101.920913  	97.700312 
1103.346425  	97.739297 
1104.771938  	97.810318 
1106.197450  	97.844236 
1107.622962  	97.829114 
1109.048474  	97.861527 
1110.473986  	97.857084 
1111.899499  	97.819567 
1113.325011  	97.886717 
1114.750523  	97.980144 
1116.176035  	98.037889 
1117.601547  	98.083358 
1119.027059  	98.096910 
1120.452572  	98.118424 
1121.878084  	98.133492 
1123.303596  	98.114198 
1124.729108  	98.104139 
1126.154620  	98.073295 
1127.580132  	98.044826 
1129.005645  	98.057483 
1130.431157  	98.056881 
1131.856669  	98.073550 
1133.282181  	98.084506 
1134.707693  	98.026767 
1136.133206  	97.967493 
1137.558718  	97.885296 
1138.984230  	97.784347 
1140.409742  	97.746033 
1141.835254  	97.679521 
1143.260766  	97.624471 
1144.686279  	97.669897 
1146.111791  	97.636454 
1147.537303  	97.536411 
1148.962815  	97.535857 
1150.388327  	97.568644 
1151.813840  	97.600127 
1153.239352  	97.662592 
1154.664864  	97.734952 
1156.090376  	97.841233 
1157.515888  	97.960555 
1158.941400  	98.055548 
1160.366913  	98.182367 
1161.792425  	98.348054 
1163.217937  	98.474946 
1164.643449  	98.566232 
1166.068961  	98.698374 
1167.494473  	98.859554 
1168.919986  	98.986367 
1170.345498  	99.071063 
1171.771010  	99.119982 
1173.196522  	99.166268 
1174.622034  	99.237326 
1176.047547  	99.277981 
1177.473059  	99.286886 
1178.898571  	99.308767 
1180.324083  	99.311991 
1181.749595  	99.314035 
1183.175107  	99.334543 
1184.600620  	99.309540 
1186.026132  	99.269546 
1187.451644  	99.262285 
1188.877156  	99.257787 
1190.302668  	99.272008 
1191.728180  	99.272556 
1193.153693  	99.221648 
1194.579205  	99.207401 
1196.004717  	99.227642 
1197.430229  	99.194123 
1198.855741  	99.131767 
1200.281254  	99.095493 
1201.706766  	99.087312 
1203.132278  	99.063630 
1204.557790  	99.015997 
1205.983302  	99.021247 
1207.408814  	99.058143 
1208.834327  	99.043033 
1210.259839  	99.003646 
1211.685351  	98.960654 
1213.110863  	98.930584 
1214.536375  	98.963152 
1215.961888  	98.987320 
1217.387400  	98.941167 
1218.812912  	98.899851 
1220.238424  	98.890304 
1221.663936  	98.871550 
1223.089448  	98.833344 
1224.514961  	98.794630 
1225.940473  	98.789627 
1227.365985  	98.798509 
1228.791497  	98.767542 
1230.217009  	98.716033 
1231.642521  	98.677804 
1233.068034  	98.642476 
1234.493546  	98.617251 
1235.919058  	98.610095 
1237.344570  	98.599333 
1238.770082  	98.589324 
1240.195595  	98.595131 
1241.621107  	98.589645 
1243.046619  	98.556904 
1244.472131  	98.532583 
1245.897643  	98.553894 
1247.323155  	98.603956 
1248.748668  	98.621711 
1250.174180  	98.597832 
1251.599692  	98.588784 
1253.025204  	98.609192 
1254.450716  	98.635607 
1255.876228  	98.663421 
1257.301741  	98.684473 
1258.727253  	98.699528 
1260.152765  	98.722942 
1261.578277  	98.743736 
1263.003789  	98.753111 
1264.429302  	98.780604 
1265.854814  	98.832426 
1267.280326  	98.849281 
1268.705838  	98.826025 
1270.131350  	98.842544 
1271.556862  	98.893394 
1272.982375  	98.910777 
1274.407887  	98.908341 
1275.833399  	98.902864 
1277.258911  	98.884987 
1278.684423  	98.877747 
1280.109935  	98.878688 
1281.535448  	98.879978 
1282.960960  	98.909998 
1284.386472  	98.938926 
1285.811984  	98.909698 
1287.237496  	98.871907 
1288.663009  	98.900527 
1290.088521  	98.936446 
1291.514033  	98.912146 
1292.939545  	98.893567 
1294.365057  	98.910465 
1295.790569  	98.900675 
1297.216082  	98.864520 
1298.641594  	98.835210 
1300.067106  	98.831038 
1301.492618  	98.871692 
1302.918130  	98.875025 
1304.343643  	98.859373 
1305.769155  	98.853443 
1307.194667  	98.845704 
1308.620179  	98.837765 
1310.045691  	98.831949 
1311.471203  	98.826996 
1312.896716  	98.821944 
1314.322228  	98.815308 
1315.747740  	98.806823 
1317.173252  	98.797804 
1318.598764  	98.786305 
1320.024276  	98.774543 
1321.449789  	98.763566 
1322.875301  	98.751770 
1324.300813  	98.741655 
1325.726325  	98.748854 
1327.151837  	98.726135 
1328.577350  	98.719102 
1330.002862  	98.670885 
1331.428374  	98.712220 
1332.853886  	98.684048 
1334.279398  	98.706616 
1335.704910  	98.704237 
1337.130423  	98.704597 
1338.555935  	98.705735 
1339.981447  	98.706234 
1341.406959  	98.707349 
1342.832471  	98.709698 
1344.257983  	98.710958 
1345.683496  	98.712801 
1347.109008  	98.714204 
1348.534520  	98.716670 
1349.960032  	98.716100 
1351.385544  	98.739240 
1352.811057  	98.724818 
1354.236569  	98.714552 
1355.662081  	98.712838 
1357.087593  	98.707624 
1358.513105  	98.716114 
1359.938617  	98.720523 
1361.364130  	98.722836 
1362.789642  	98.725267 
1364.215154  	98.730714 
1365.640666  	98.715036 
1367.066178  	98.746561 
1368.491691  	98.757010 
1369.917203  	98.767396 
1371.342715  	98.781923 
1372.768227  	98.789968 
1374.193739  	98.802673 
1375.619251  	98.816530 
1377.044764  	98.850067 
1378.470276  	98.844321 
1379.895788  	98.858464 
1381.321300  	98.883678 
1382.746812  	98.877373 
1384.172324  	98.905481 
1385.597837  	98.897163 
1387.023349  	98.905152 
1388.448861  	98.914416 
1389.874373  	98.924151 
1391.299885  	98.932741 
1392.725398  	98.938300 
1394.150910  	98.943578 
1395.576422  	98.949911 
1397.001934  	98.954613 
1398.427446  	98.958565 
1399.852958  	98.963123 
1401.278471  	98.965685 
1402.703983  	98.966550 
1404.129495  	98.967777 
1405.555007  	98.969625 
1406.980519  	98.970746 
1408.406031  	98.973324 
1409.831544  	98.976750 
1411.257056  	98.979041 
1412.682568  	98.979690 
1414.108080  	98.981648 
1415.533592  	98.984910 
1416.959105  	98.988705 
1418.384617  	98.991437 
1419.810129  	98.993769 
1421.235641  	98.998101 
1422.661153  	99.002498 
1424.086665  	99.003278 
1425.512178  	99.006170 
1426.937690  	99.056563 
1428.363202  	99.020011 
1429.788714  	99.027688 
1431.214226  	99.035911 
1432.639739  	99.039455 
1434.065251  	99.042339 
1435.490763  	99.048250 
1436.916275  	99.055622 
1438.341787  	99.060775 
1439.767299  	99.064270 
1441.192812  	99.069768 
1442.618324  	99.076835 
1444.043836  	99.054193 
1445.469348  	99.084719 
1446.894860  	99.091909 
1448.320372  	99.103506 
1449.745885  	99.115732 
1451.171397  	99.125882 
1452.596909  	99.136471 
1454.022421  	99.148640 
1455.447933  	99.163794 
1456.873446  	99.181254 
1458.298958  	99.198709 
1459.724470  	99.215224 
1461.149982  	99.230270 
1462.575494  	99.243987 
1464.001006  	99.257786 
1465.426519  	99.272864 
1466.852031  	99.289964 
1468.277543  	99.308374 
1469.703055  	99.325995 
1471.128567  	99.342192 
1472.554079  	99.357890 
1473.979592  	99.372457 
1475.405104  	99.386318 
1476.830616  	99.397323 
1478.256128  	99.404626 
1479.681640  	99.412296 
1481.107153  	99.418147 
1482.532665  	99.422542 
1483.958177  	99.462134 
1485.383689  	99.426359 
1486.809201  	99.426519 
1488.234713  	99.427020 
1489.660226  	99.426804 
1491.085738  	99.426113 
1492.511250  	99.426651 
1493.936762  	99.426068 
1495.362274  	99.421632 
1496.787786  	99.415396 
1498.213299  	99.407484 
1499.638811  	99.399770 
1501.064323  	99.396523 
1502.489835  	99.422281 
1503.915347  	99.391933 
1505.340860  	99.388075 
1506.766372  	99.386851 
1508.191884  	99.385074 
1509.617396  	99.383109 
1511.042908  	99.385532 
1512.468420  	99.388007 
1513.893933  	99.386686 
1515.319445  	99.382382 
1516.744957  	99.378039 
1518.170469  	99.375106 
1519.595981  	99.373359 
1521.021494  	99.370774 
1522.447006  	99.371211 
1523.872518  	99.372477 
1525.298030  	99.368767 
1526.723542  	99.363010 
1528.149054  	99.362448 
1529.574567  	99.362417 
1531.000079  	99.333936 
1532.425591  	99.355042 
1533.851103  	99.354696 
1535.276615  	99.353513 
1536.702127  	99.351599 
1538.127640  	99.351539 
1539.553152  	99.353971 
1540.978664  	99.355613 
1542.404176  	99.357644 
1543.829688  	99.361288 
1545.255201  	99.364862 
1546.680713  	99.365565 
1548.106225  	99.365166 
1549.531737  	99.378821 
1550.957249  	99.385131 
1552.382761  	99.386768 
1553.808274  	99.389446 
1555.233786  	99.395788 
1556.659298  	99.402610 
1558.084810  	99.407302 
1559.510322  	99.413483 
1560.935834  	99.421444 
1562.361347  	99.428258 
1563.786859  	99.433119 
1565.212371  	99.441198 
1566.637883  	99.448667 
1568.063395  	99.455304 
1569.488908  	99.463071 
1570.914420  	99.470418 
1572.339932  	99.500525 
1573.765444  	99.470653 
1575.190956  	99.474815 
1576.616468  	99.481410 
1578.041981  	99.485866 
1579.467493  	99.510004 
1580.893005  	99.492450 
1582.318517  	99.493799 
1583.744029  	99.474384 
1585.169542  	99.491417 
1586.595054  	99.469723 
1588.020566  	99.493547 
1589.446078  	99.490028 
1590.871590  	99.520047 
1592.297102  	99.489928 
1593.722615  	99.491019 
1595.148127  	99.490701 
1596.573639  	99.489910 
1597.999151  	99.504311 
1599.424663  	99.488185 
1600.850175  	99.488394 
1602.275688  	99.487336 
1603.701200  	99.484507 
1605.126712  	99.524146 
1606.552224  	99.485383 
1607.977736  	99.486070 
1609.403249  	99.481130 
1610.828761  	99.475686 
1612.254273  	99.496303 
1613.679785  	99.499579 
1615.105297  	99.466945 
1616.530809  	99.462639 
1617.956322  	99.460674 
1619.381834  	99.476535 
1620.807346  	99.411697 
1622.232858  	99.455808 
1623.658370  	99.449568 
1625.083882  	99.445500 
1626.509395  	99.414256 
1627.934907  	99.429833 
1629.360419  	99.420008 
1630.785931  	99.490737 
1632.211443  	99.402982 
1633.636956  	99.398057 
1635.062468  	99.392798 
1636.487980  	99.392425 
1637.913492  	99.393701 
1639.339004  	99.389148 
1640.764516  	99.377935 
1642.190029  	99.384192 
1643.615541  	99.392211 
1645.041053  	99.394076 
1646.466565  	99.401434 
1647.892077  	99.413393 
1649.317590  	99.419141 
1650.743102  	99.425715 
1652.168614  	99.439937 
1653.594126  	99.454548 
1655.019638  	99.463863 
1656.445150  	99.470461 
1657.870663  	99.482925 
1659.296175  	99.558901 
1660.721687  	99.491086 
1662.147199  	99.488524 
1663.572711  	99.495852 
1664.998223  	99.511607 
1666.423736  	99.501403 
1667.849248  	99.496284 
1669.274760  	99.500337 
1670.700272  	99.501002 
1672.125784  	99.497576 
1673.551297  	99.499577 
1674.976809  	99.498271 
1676.402321  	99.489481 
1677.827833  	99.483021 
1679.253345  	99.483858 
1680.678857  	99.484557 
1682.104370  	99.480471 
1683.529882  	99.477682 
1684.955394  	99.481767 
1686.380906  	99.482612 
1687.806418  	99.475724 
1689.231930  	99.471582 
1690.657443  	99.469126 
1692.082955  	99.481589 
1693.508467  	99.451365 
1694.933979  	99.446248 
1696.359491  	99.442292 
1697.785004  	99.433499 
1699.210516  	99.427622 
1700.636028  	99.425242 
1702.061540  	99.421510 
1703.487052  	99.411976 
1704.912564  	99.400817 
1706.338077  	99.391647 
1707.763589  	99.381840 
1709.189101  	99.366849 
1710.614613  	99.354685 
1712.040125  	99.347172 
1713.465637  	99.335543 
1714.891150  	99.323853 
1716.316662  	99.315770 
1717.742174  	99.309246 
1719.167686  	99.300341 
1720.593198  	99.288380 
1722.018711  	99.275537 
1723.444223  	99.269647 
1724.869735  	99.265970 
1726.295247  	99.245265 
1727.720759  	99.256707 
1729.146271  	99.258851 
1730.571784  	99.261858 
1731.997296  	99.265370 
1733.422808  	99.272533 
1734.848320  	99.283427 
1736.273832  	99.293926 
1737.699345  	99.301259 
1739.124857  	99.309399 
1740.550369  	99.320436 
1741.975881  	99.331017 
1743.401393  	99.340065 
1744.826905  	99.352415 
1746.252418  	99.368444 
1747.677930  	99.378290 
1749.103442  	99.386115 
1750.528954  	99.397702 
1751.954466  	99.409291 
1753.379978  	99.416732 
1754.805491  	99.423842 
1756.231003  	99.432817 
1757.656515  	99.440778 
1759.082027  	99.447882 
1760.507539  	99.457346 
1761.933052  	99.469970 
1763.358564  	99.479980 
1764.784076  	99.453157 
1766.209588  	99.493261 
1767.635100  	99.502644 
1769.060612  	99.511214 
1770.486125  	99.515843 
1771.911637  	99.520142 
1773.337149  	99.526830 
1774.762661  	99.533140 
1776.188173  	99.536912 
1777.613685  	99.556371 
1779.039198  	99.543508 
1780.464710  	99.544191 
1781.890222  	99.541506 
1783.315734  	99.537986 
1784.741246  	99.535177 
1786.166759  	99.534617 
1787.592271  	99.544973 
1789.017783  	99.537971 
1790.443295  	99.537753 
1791.868807  	99.535515 
1793.294319  	99.532080 
1794.719832  	99.531782 
1796.145344  	99.534300 
1797.570856  	99.533787 
1798.996368  	99.529993 
1800.421880  	99.528735 
1801.847393  	99.531626 
1803.272905  	99.534659 
1804.698417  	99.536941 
1806.123929  	99.540761 
1807.549441  	99.544087 
1808.974953  	99.546240 
1810.400466  	99.545340 
1811.825978  	99.542322 
1813.251490  	99.539814 
1814.677002  	99.556818 
1816.102514  	99.538619 
1817.528026  	99.538769 
1818.953539  	99.537914 
1820.379051  	99.537024 
1821.804563  	99.537126 
1823.230075  	99.536929 
1824.655587  	99.536142 
1826.081100  	99.536733 
1827.506612  	99.539948 
1828.932124  	99.542396 
1830.357636  	99.542215 
1831.783148  	99.543140 
1833.208660  	99.537532 
1834.634173  	99.550308 
1836.059685  	99.553218 
1837.485197  	99.557147 
1838.910709  	99.561187 
1840.336221  	99.589234 
1841.761733  	99.569147 
1843.187246  	99.576318 
1844.612758  	99.581996 
1846.038270  	99.583279 
1847.463782  	99.582540 
1848.889294  	99.579088 
1850.314807  	99.604120 
1851.740319  	99.603555 
1853.165831  	99.560883 
1854.591343  	99.571175 
1856.016855  	99.576812 
1857.442367  	99.569781 
1858.867880  	99.564824 
1860.293392  	99.559303 
1861.718904  	99.550383 
1863.144416  	99.541897 
1864.569928  	99.543190 
1865.995440  	99.538940 
1867.420953  	99.531399 
1868.846465  	99.526127 
1870.271977  	99.524332 
1871.697489  	99.524205 
1873.123001  	99.461976 
1874.548514  	99.528744 
1875.974026  	99.514119 
1877.399538  	99.531252 
1878.825050  	99.528678 
1880.250562  	99.532087 
1881.676074  	99.525355 
1883.101587  	99.518274 
1884.527099  	99.527403 
1885.952611  	99.531215 
1887.378123  	99.536151 
1888.803635  	99.533198 
1890.229148  	99.528308 
1891.654660  	99.612976 
1893.080172  	99.542086 
1894.505684  	99.539516 
1895.931196  	99.542431 
1897.356708  	99.541346 
1898.782221  	99.518960 
1900.207733  	99.519930 
1901.633245  	99.536151 
1903.058757  	99.545043 
1904.484269  	99.553597 
1905.909781  	99.544629 
1907.335294  	99.537444 
1908.760806  	99.544828 
1910.186318  	99.547162 
1911.611830  	99.456532 
1913.037342  	99.607498 
1914.462855  	99.669939 
1915.888367  	99.531145 
1917.313879  	99.517419 
1918.739391  	99.509037 
1920.164903  	99.719304 
1921.590415  	99.512825 
1923.015928  	99.500112 
1924.441440  	99.494040 
1925.866952  	99.274721 
1927.292464  	99.466948 
1928.717976  	99.470137 
1930.143488  	99.468431 
1931.569001  	99.466109 
1932.994513  	99.445549 
1934.420025  	99.425219 
1935.845537  	99.423479 
1937.271049  	99.435401 
1938.696562  	99.443457 
1940.122074  	99.459734 
1941.547586  	99.471752 
1942.973098  	99.469443 
1944.398610  	99.460483 
1945.824122  	99.380898 
1947.249635  	99.465039 
1948.675147  	99.509605 
1950.100659  	99.478472 
1951.526171  	99.478671 
1952.951683  	99.641702 
1954.377196  	99.483210 
1955.802708  	99.488195 
1957.228220  	99.480311 
1958.653732  	99.474392 
1960.079244  	99.472853 
1961.504756  	99.472748 
1962.930269  	99.466692 
1964.355781  	99.453868 
1965.781293  	99.444028 
1967.206805  	99.435954 
1968.632317  	99.175104 
1970.057829  	99.449512 
1971.483342  	99.481587 
1972.908854  	99.487657 
1974.334366  	99.470467 
1975.759878  	99.456218 
1977.185390  	99.436245 
1978.610903  	99.413824 
1980.036415  	99.411020 
1981.461927  	99.436866 
1982.887439  	99.437296 
1984.312951  	99.532399 
1985.738463  	99.319375 
1987.163976  	99.255272 
1988.589488  	99.158448 
1990.015000  	99.419724 
1991.440512  	99.431658 
1992.866024  	99.404200 
1994.291536  	99.376185 
1995.717049  	99.303249 
1997.142561  	99.521926 
1998.568073  	99.660497 
1999.993585  	99.556455 
2001.419097  	99.624710 
2002.844610  	99.509061 
2004.270122  	99.272074 
2005.695634  	99.437394 
2007.121146  	99.601545 
2008.546658  	99.753438 
2009.972170  	99.961881 
2011.397683  	99.809562 
2012.823195  	99.715328 
2014.248707  	99.828392 
2015.674219  	99.817889 
2017.099731  	99.827520 
2018.525244  	99.774757 
2019.950756  	99.520380 
2021.376268  	99.243619 
2022.801780  	99.338129 
2024.227292  	99.736627 
2025.652804  	99.570038 
2027.078317  	99.162701 
2028.503829  	99.572512 
2029.929341  	99.933206 
2031.354853  	99.571868 
2032.780365  	99.319835 
2034.205877  	99.421746 
2035.631390  	99.741025 
2037.056902  	99.929084 
2038.482414  	99.613435 
2039.907926  	99.352538 
2041.333438  	99.343405 
2042.758951  	99.368722 
2044.184463  	99.549855 
2045.609975  	99.539880 
2047.035487  	99.277426 
2048.460999  	99.264573 
2049.886511  	99.355436 
2051.312024  	99.392307 
2052.737536  	99.532020 
2054.163048  	99.458440 
2055.588560  	99.046996 
2057.014072  	98.894071 
2058.439584  	99.238917 
2059.865097  	99.503926 
2061.290609  	99.340600 
2062.716121  	99.276581 
2064.141633  	99.547431 
2065.567145  	99.697569 
2066.992658  	99.570120 
2068.418170  	99.411548 
2069.843682  	99.387636 
2071.269194  	99.427516 
2072.694706  	99.413677 
2074.120218  	99.430601 
2075.545731  	99.511265 
2076.971243  	99.540548 
2078.396755  	99.485653 
2079.822267  	99.407462 
2081.247779  	99.489097 
2082.673291  	99.675454 
2084.098804  	99.635160 
2085.524316  	99.472162 
2086.949828  	99.448643 
2088.375340  	99.477825 
2089.800852  	99.456022 
2091.226365  	99.384637 
2092.651877  	99.406249 
2094.077389  	99.591710 
2095.502901  	99.638851 
2096.928413  	99.509442 
2098.353925  	99.439121 
2099.779438  	99.433152 
2101.204950  	99.537793 
2102.630462  	99.620585 
2104.055974  	99.513948 
2105.481486  	99.506788 
2106.906999  	99.617905 
2108.332511  	99.619293 
2109.758023  	99.567040 
2111.183535  	99.441084 
2112.609047  	99.348370 
2114.034559  	99.407091 
2115.460072  	99.418911 
2116.885584  	99.493767 
2118.311096  	99.697977 
2119.736608  	99.712753 
2121.162120  	99.622741 
2122.587632  	99.543316 
2124.013145  	99.384041 
2125.438657  	99.333359 
2126.864169  	99.418973 
2128.289681  	99.534445 
2129.715193  	99.693163 
2131.140706  	99.646506 
2132.566218  	99.433192 
2133.991730  	99.412008 
2135.417242  	99.492071 
2136.842754  	99.495109 
2138.268266  	99.394986 
2139.693779  	99.250215 
2141.119291  	99.301038 
2142.544803  	99.390762 
2143.970315  	99.244455 
2145.395827  	99.168474 
2146.821339  	99.434101 
2148.246852  	99.745072 
2149.672364  	99.663198 
2151.097876  	99.495764 
2152.523388  	99.750942 
2153.948900  	99.938577 
2155.374413  	99.799824 
2156.799925  	99.776875 
2158.225437  	99.529693 
2159.650949  	99.144869 
2161.076461  	99.415832 
2162.501973  	99.670779 
2163.927486  	99.558965 
2165.352998  	99.621537 
2166.778510  	99.701876 
2168.204022  	99.448574 
2169.629534  	99.197725 
2171.055047  	99.213951 
2172.480559  	99.262895 
2173.906071  	99.222249 
2175.331583  	99.358035 
2176.757095  	99.468680 
2178.182607  	99.282773 
2179.608120  	99.243924 
2181.033632  	99.303450 
2182.459144  	99.087675 
2183.884656  	99.099403 
2185.310168  	99.314039 
2186.735680  	99.170356 
2188.161193  	99.087750 
2189.586705  	99.271029 
2191.012217  	99.238009 
2192.437729  	99.128845 
2193.863241  	99.170024 
2195.288754  	99.192142 
2196.714266  	99.214960 
2198.139778  	99.195193 
2199.565290  	99.160409 
2200.990802  	99.341507 
2202.416314  	99.497349 
2203.841827  	99.453877 
2205.267339  	99.501592 
2206.692851  	99.459672 
2208.118363  	99.214500 
2209.543875  	99.257839 
2210.969387  	99.562843 
2212.394900  	99.708081 
2213.820412  	99.777356 
2215.245924  	99.770719 
2216.671436  	99.475344 
2218.096948  	99.155061 
2219.522461  	99.200306 
2220.947973  	99.319966 
2222.373485  	99.216116 
2223.798997  	99.237767 
2225.224509  	99.436801 
2226.650021  	99.438352 
2228.075534  	99.355773 
2229.501046  	99.395415 
2230.926558  	99.522690 
2232.352070  	99.742714 
2233.777582  	99.820724 
2235.203095  	99.665364 
2236.628607  	99.528432 
2238.054119  	99.407563 
2239.479631  	99.443919 
2240.905143  	99.695875 
2242.330655  	99.694798 
2243.756168  	99.544118 
2245.181680  	99.590499 
2246.607192  	99.547816 
2248.032704  	99.446406 
2249.458216  	99.476060 
2250.883728  	99.476698 
2252.309241  	99.477337 
2253.734753  	99.477975 
2255.160265  	99.478613 
2256.585777  	99.479252 
2258.011289  	99.479890 
2259.436802  	99.480528 
2260.862314  	99.481167 
2262.287826  	99.481805 
2263.713338  	99.482444 
2265.138850  	99.483082 
2266.564362  	99.483720 
2267.989875  	99.484359 
2269.415387  	99.484997 
2270.840899  	99.485636 
2272.266411  	99.486274 
2273.691923  	99.486912 
2275.117435  	99.487551 
2276.542948  	99.488189 
2277.968460  	99.488828 
2279.393972  	99.489466 
2280.819484  	99.490104 
2282.244996  	99.490743 
2283.670509  	99.491381 
2285.096021  	99.492020 
2286.521533  	99.492658 
2287.947045  	99.493296 
2289.372557  	99.493935 
2290.798069  	99.494573 
2292.223582  	99.495212 
2293.649094  	99.495850 
2295.074606  	99.496488 
2296.500118  	99.497127 
2297.925630  	99.497765 
2299.351142  	99.498403 
2300.776655  	99.499042 
2302.202167  	99.499680 
2303.627679  	99.500319 
2305.053191  	99.500957 
2306.478703  	99.501595 
2307.904216  	99.502234 
2309.329728  	99.502872 
2310.755240  	99.503511 
2312.180752  	99.504149 
2313.606264  	99.504787 
2315.031776  	99.505426 
2316.457289  	99.506064 
2317.882801  	99.506703 
2319.308313  	99.507341 
2320.733825  	99.507979 
2322.159337  	99.508618 
2323.584850  	99.509256 
2325.010362  	99.509895 
2326.435874  	99.510533 
2327.861386  	99.511171 
2329.286898  	99.511810 
2330.712410  	99.512448 
2332.137923  	99.513087 
2333.563435  	99.513725 
2334.988947  	99.514363 
2336.414459  	99.515002 
2337.839971  	99.515640 
2339.265483  	99.516278 
2340.690996  	99.516917 
2342.116508  	99.517555 
2343.542020  	99.518194 
2344.967532  	99.518832 
2346.393044  	99.519470 
2347.818557  	99.520109 
2349.244069  	99.520747 
2350.669581  	99.521386 
2352.095093  	99.522024 
2353.520605  	99.522662 
2354.946117  	99.523301 
2356.371630  	99.523939 
2357.797142  	99.524578 
2359.222654  	99.525216 
2360.648166  	99.525854 
2362.073678  	99.526493 
2363.499190  	99.527131 
2364.924703  	99.527770 
2366.350215  	99.528408 
2367.775727  	99.529046 
2369.201239  	99.529685 
2370.626751  	99.530323 
2372.052264  	99.530962 
2373.477776  	99.531600 
2374.903288  	99.532238 
2376.328800  	99.532877 
2377.754312  	99.533515 
2379.179824  	99.534153 
2380.605337  	99.534792 
2382.030849  	99.535430 
2383.456361  	99.536069 
2384.881873  	99.536707 
2386.307385  	99.537345 
2387.732898  	99.537984 
2389.158410  	99.538622 
2390.583922  	99.539261 
2392.009434  	99.539899 
2393.434946  	99.540537 
2394.860458  	99.541176 
2396.285971  	99.541814 
2397.711483  	99.542453 
2399.136995  	99.543091 
2400.562507  	99.543729 
2401.988019  	99.533282 
2403.413531  	99.560551 
2404.839044  	99.619077 
2406.264556  	99.570183 
2407.690068  	99.543732 
2409.115580  	99.595178 
2410.541092  	99.596792 
2411.966605  	99.593977 
2413.392117  	99.605013 
2414.817629  	99.597441 
2416.243141  	99.637617 
2417.668653  	99.695506 
2419.094165  	99.713615 
2420.519678  	99.687766 
2421.945190  	99.609651 
2423.370702  	99.571694 
2424.796214  	99.603771 
2426.221726  	99.595140 
2427.647238  	99.558107 
2429.072751  	99.567564 
2430.498263  	99.587207 
2431.923775  	99.554421 
2433.349287  	99.515529 
2434.774799  	99.566131 
2436.200312  	99.629796 
2437.625824  	99.618942 
2439.051336  	99.624508 
2440.476848  	99.639530 
2441.902360  	99.611159 
2443.327872  	99.599066 
2444.753385  	99.572180 
2446.178897  	99.561864 
2447.604409  	99.649876 
2449.029921  	99.663106 
2450.455433  	99.568112 
2451.880945  	99.592757 
2453.306458  	99.685333 
2454.731970  	99.673556 
2456.157482  	99.615458 
2457.582994  	99.581842 
2459.008506  	99.588762 
2460.434019  	99.651984 
2461.859531  	99.687167 
2463.285043  	99.620867 
2464.710555  	99.537422 
2466.136067  	99.517416 
2467.561579  	99.527513 
2468.987092  	99.540927 
2470.412604  	99.538095 
2471.838116  	99.521581 
2473.263628  	99.573525 
2474.689140  	99.640577 
2476.114653  	99.611093 
2477.540165  	99.610230 
2478.965677  	99.675456 
2480.391189  	99.664687 
2481.816701  	99.648739 
2483.242213  	99.671045 
2484.667726  	99.609886 
2486.093238  	99.534465 
2487.518750  	99.537349 
2488.944262  	99.571356 
2490.369774  	99.613352 
2491.795286  	99.624961 
2493.220799  	99.607520 
2494.646311  	99.574456 
2496.071823  	99.458145 
2497.497335  	99.376319 
2498.922847  	99.459763 
2500.348360  	99.528136 
2501.773872  	99.497324 
2503.199384  	99.506191 
2504.624896  	99.568013 
2506.050408  	99.628858 
2507.475920  	99.640800 
2508.901433  	99.563260 
2510.326945  	99.499124 
2511.752457  	99.519695 
2513.177969  	99.533846 
2514.603481  	99.525113 
2516.028993  	99.561628 
2517.454506  	99.610314 
2518.880018  	99.611036 
2520.305530  	99.599875 
2521.731042  	99.625661 
2523.156554  	99.652688 
2524.582067  	99.638260 
2526.007579  	99.613193 
2527.433091  	99.608345 
2528.858603  	99.597641 
2530.284115  	99.569793 
2531.709627  	99.561302 
2533.135140  	99.587190 
2534.560652  	99.636196 
2535.986164  	99.679037 
2537.411676  	99.669570 
2538.837188  	99.660820 
2540.262701  	99.720402 
2541.688213  	99.740585 
2543.113725  	99.681883 
2544.539237  	99.658939 
2545.964749  	99.635922 
2547.390261  	99.572856 
2548.815774  	99.567654 
2550.241286  	99.593477 
2551.666798  	99.598854 
2553.092310  	99.637258 
2554.517822  	99.666924 
2555.943334  	99.631413 
2557.368847  	99.593469 
2558.794359  	99.595125 
2560.219871  	99.600118 
2561.645383  	99.578218 
2563.070895  	99.570481 
2564.496408  	99.602330 
2565.921920  	99.613744 
2567.347432  	99.605586 
2568.772944  	99.638337 
2570.198456  	99.691762 
2571.623968  	99.707297 
2573.049481  	99.658596 
2574.474993  	99.605645 
2575.900505  	99.623585 
2577.326017  	99.647332 
2578.751529  	99.623071 
2580.177041  	99.584908 
2581.602554  	99.537331 
2583.028066  	99.556609 
2584.453578  	99.654880 
2585.879090  	99.658684 
2587.304602  	99.602450 
2588.730115  	99.642668 
2590.155627  	99.674741 
2591.581139  	99.618483 
2593.006651  	99.575541 
2594.432163  	99.572467 
2595.857675  	99.578962 
2597.283188  	99.598860 
2598.708700  	99.622976 
2600.134212  	99.622085 
2601.559724  	99.609433 
2602.985236  	99.640082 
2604.410749  	99.651107 
2605.836261  	99.583078 
2607.261773  	99.581125 
2608.687285  	99.643270 
2610.112797  	99.601293 
2611.538309  	99.561901 
2612.963822  	99.631166 
2614.389334  	99.681329 
2615.814846  	99.703829 
2617.240358  	99.712658 
2618.665870  	99.650391 
2620.091382  	99.623123 
2621.516895  	99.673675 
2622.942407  	99.681086 
2624.367919  	99.642395 
2625.793431  	99.598441 
2627.218943  	99.567282 
2628.644456  	99.593551 
2630.069968  	99.606115 
2631.495480  	99.552328 
2632.920992  	99.537252 
2634.346504  	99.580850 
2635.772016  	99.611502 
2637.197529  	99.635434 
2638.623041  	99.662691 
2640.048553  	99.669322 
2641.474065  	99.661437 
2642.899577  	99.656499 
2644.325089  	99.640217 
2645.750602  	99.604096 
2647.176114  	99.600793 
2648.601626  	99.644725 
2650.027138  	99.671086 
2651.452650  	99.670600 
2652.878163  	99.651858 
2654.303675  	99.614119 
2655.729187  	99.639738 
2657.154699  	99.719261 
2658.580211  	99.726498 
2660.005723  	99.686283 
2661.431236  	99.669178 
2662.856748  	99.642311 
2664.282260  	99.620129 
2665.707772  	99.627041 
2667.133284  	99.631286 
2668.558796  	99.638631 
2669.984309  	99.652055 
2671.409821  	99.647799 
2672.835333  	99.632552 
2674.260845  	99.627994 
2675.686357  	99.658430 
2677.111870  	99.703667 
2678.537382  	99.703737 
2679.962894  	99.678777 
2681.388406  	99.687103 
2682.813918  	99.712078 
2684.239430  	99.704401 
2685.664943  	99.663583 
2687.090455  	99.647145 
2688.515967  	99.672712 
2689.941479  	99.691143 
2691.366991  	99.699017 
2692.792504  	99.709782 
2694.218016  	99.710736 
2695.643528  	99.721270 
2697.069040  	99.717378 
2698.494552  	99.669978 
2699.920064  	99.660070 
2701.345577  	99.699866 
2702.771089  	99.703153 
2704.196601  	99.683385 
2705.622113  	99.678874 
2707.047625  	99.683237 
2708.473137  	99.709685 
2709.898650  	99.720657 
2711.324162  	99.680322 
2712.749674  	99.659530 
2714.175186  	99.686983 
2715.600698  	99.694461 
2717.026211  	99.670216 
2718.451723  	99.663604 
2719.877235  	99.676892 
2721.302747  	99.683544 
2722.728259  	99.691262 
2724.153771  	99.696495 
2725.579284  	99.674215 
2727.004796  	99.652369 
2728.430308  	99.655214 
2729.855820  	99.656961 
2731.281332  	99.671488 
2732.706844  	99.702136 
2734.132357  	99.699040 
2735.557869  	99.682586 
2736.983381  	99.692681 
2738.408893  	99.695767 
2739.834405  	99.681363 
2741.259918  	99.671689 
2742.685430  	99.674843 
2744.110942  	99.698114 
2745.536454  	99.707039 
2746.961966  	99.672900 
2748.387478  	99.652533 
2749.812991  	99.675337 
2751.238503  	99.679140 
2752.664015  	99.640462 
2754.089527  	99.622691 
2755.515039  	99.654007 
2756.940552  	99.687315 
2758.366064  	99.698875 
2759.791576  	99.688011 
2761.217088  	99.657302 
2762.642600  	99.661323 
2764.068112  	99.704151 
2765.493625  	99.717113 
2766.919137  	99.709077 
2768.344649  	99.697452 
2769.770161  	99.674620 
2771.195673  	99.690964 
2772.621185  	99.716206 
2774.046698  	99.693921 
2775.472210  	99.698949 
2776.897722  	99.732291 
2778.323234  	99.721706 
2779.748746  	99.708297 
2781.174259  	99.715507 
2782.599771  	99.708852 
2784.025283  	99.692203 
2785.450795  	99.682219 
2786.876307  	99.697877 
2788.301819  	99.718650 
2789.727332  	99.717276 
2791.152844  	99.722242 
2792.578356  	99.714884 
2794.003868  	99.690644 
2795.429380  	99.705693 
2796.854892  	99.710759 
2798.280405  	99.668587 
2799.705917  	99.653058 
2801.131429  	99.681591 
2802.556941  	99.727883 
2803.982453  	99.742178 
2805.407966  	99.690065 
2806.833478  	99.659895 
2808.258990  	99.678726 
2809.684502  	99.696423 
2811.110014  	99.738461 
2812.535526  	99.747198 
2813.961039  	99.689833 
2815.386551  	99.700459 
2816.812063  	99.750134 
2818.237575  	99.726487 
2819.663087  	99.715831 
2821.088600  	99.751639 
2822.514112  	99.753936 
2823.939624  	99.737739 
2825.365136  	99.728771 
2826.790648  	99.711003 
2828.216160  	99.701962 
2829.641673  	99.701007 
2831.067185  	99.683566 
2832.492697  	99.682117 
2833.918209  	99.721495 
2835.343721  	99.737829 
2836.769233  	99.708992 
2838.194746  	99.696854 
2839.620258  	99.704484 
2841.045770  	99.713661 
2842.471282  	99.735699 
2843.896794  	99.747807 
2845.322307  	99.754791 
2846.747819  	99.773005 
2848.173331  	99.784599 
2849.598843  	99.824513 
2851.024355  	99.877043 
2852.449867  	99.865492 
2853.875380  	99.843681 
2855.300892  	99.863344 
2856.726404  	99.885904 
2858.151916  	99.908404 
2859.577428  	99.892263 
2861.002940  	99.807436 
2862.428453  	99.748642 
2863.853965  	99.768292 
2865.279477  	99.801748 
2866.704989  	99.787780 
2868.130501  	99.743367 
2869.556014  	99.735072 
2870.981526  	99.748531 
2872.407038  	99.733170 
2873.832550  	99.724456 
2875.258062  	99.723979 
2876.683574  	99.698298 
2878.109087  	99.687446 
2879.534599  	99.701320 
2880.960111  	99.703397 
2882.385623  	99.682136 
2883.811135  	99.654014 
2885.236647  	99.681763 
2886.662160  	99.743952 
2888.087672  	99.739097 
2889.513184  	99.722111 
2890.938696  	99.746680 
2892.364208  	99.737257 
2893.789721  	99.751263 
2895.215233  	99.825346 
2896.640745  	99.817997 
2898.066257  	99.756930 
2899.491769  	99.755287 
2900.917281  	99.748169 
2902.342794  	99.722484 
2903.768306  	99.724619 
2905.193818  	99.724504 
2906.619330  	99.753044 
2908.044842  	99.806777 
2909.470355  	99.783160 
2910.895867  	99.713959 
2912.321379  	99.698796 
2913.746891  	99.738022 
2915.172403  	99.805605 
2916.597915  	99.864795 
2918.023428  	99.879553 
2919.448940  	99.864556 
2920.874452  	99.848399 
2922.299964  	99.868510 
2923.725476  	99.929414 
2925.150988  	99.979775 
2926.576501  	100.001941 
2928.002013  	99.989255 
2929.427525  	99.938369 
2930.853037  	99.906032 
2932.278549  	99.906789 
2933.704062  	99.904864 
2935.129574  	99.905903 
2936.555086  	99.897636 
2937.980598  	99.861802 
2939.406110  	99.835732 
2940.831622  	99.851387 
2942.257135  	99.895674 
2943.682647  	99.905516 
2945.108159  	99.846131 
2946.533671  	99.804038 
2947.959183  	99.814810 
2949.384695  	99.793351 
2950.810208  	99.755192 
2952.235720  	99.765581 
2953.661232  	99.777399 
2955.086744  	99.758373 
2956.512256  	99.735568 
2957.937769  	99.745760 
2959.363281  	99.817504 
2960.788793  	99.860097 
2962.214305  	99.819148 
2963.639817  	99.842189 
2965.065329  	99.960400 
2966.490842  	100.033328 
2967.916354  	100.029214 
2969.341866  	99.978772 
2970.767378  	99.934778 
2972.192890  	99.954120 
2973.618403  	99.952701 
2975.043915  	99.889616 
2976.469427  	99.862549 
2977.894939  	99.888215 
2979.320451  	99.935349 
2980.745963  	99.965555 
2982.171476  	99.926319 
2983.596988  	99.877420 
2985.022500  	99.876222 
2986.448012  	99.898620 
2987.873524  	99.925624 
2989.299036  	99.905125 
2990.724549  	99.874867 
2992.150061  	99.910107 
2993.575573  	99.909593 
2995.001085  	99.885496 
2996.426597  	99.946894 
2997.852110  	99.966049 
2999.277622  	99.913821 
3000.703134  	99.932343 
3002.128646  	99.971107 
3003.554158  	99.962955 
3004.979670  	99.942651 
3006.405183  	99.923917 
3007.830695  	99.932296 
3009.256207  	99.917468 
3010.681719  	99.851612 
3012.107231  	99.865353 
3013.532743  	99.950491 
3014.958256  	99.961779 
3016.383768  	99.914893 
3017.809280  	99.888969 
3019.234792  	99.889565 
3020.660304  	99.901726 
3022.085817  	99.910979 
3023.511329  	99.909347 
3024.936841  	99.912999 
3026.362353  	99.935424 
3027.787865  	99.936990 
3029.213377  	99.907264 
3030.638890  	99.912888 
3032.064402  	99.934452 
3033.489914  	99.912319 
3034.915426  	99.887613 
3036.340938  	99.876126 
3037.766450  	99.876309 
3039.191963  	99.899439 
3040.617475  	99.883523 
3042.042987  	99.842490 
3043.468499  	99.852378 
3044.894011  	99.861089 
3046.319524  	99.829880 
3047.745036  	99.810284 
3049.170548  	99.828390 
3050.596060  	99.875709 
3052.021572  	99.905812 
3053.447084  	99.897894 
3054.872597  	99.890165 
3056.298109  	99.887550 
3057.723621  	99.895519 
3059.149133  	99.921274 
3060.574645  	99.921343 
3062.000158  	99.895127 
3063.425670  	99.881689 
3064.851182  	99.888360 
3066.276694  	99.895549 
3067.702206  	99.879342 
3069.127718  	99.862688 
3070.553231  	99.854757 
3071.978743  	99.843728 
3073.404255  	99.884318 
3074.829767  	99.916667 
3076.255279  	99.818729 
3077.680791  	99.729646 
3079.106304  	99.761687 
3080.531816  	99.776855 
3081.957328  	99.778788 
3083.382840  	99.851850 
3084.808352  	99.887599 
3086.233865  	99.851307 
3087.659377  	99.833015 
3089.084889  	99.822122 
3090.510401  	99.831691 
3091.935913  	99.902531 
3093.361425  	99.912804 
3094.786938  	99.816016 
3096.212450  	99.772837 
3097.637962  	99.794843 
3099.063474  	99.771655 
3100.488986  	99.758105 
3101.914498  	99.797949 
3103.340011  	99.814022 
3104.765523  	99.799689 
3106.191035  	99.799272 
3107.616547  	99.808017 
3109.042059  	99.799510 
3110.467572  	99.783326 
3111.893084  	99.809855 
3113.318596  	99.856369 
3114.744108  	99.846580 
3116.169620  	99.805250 
3117.595132  	99.785884 
3119.020645  	99.770599 
3120.446157  	99.743230 
3121.871669  	99.730173 
3123.297181  	99.768058 
3124.722693  	99.826662 
3126.148206  	99.848550 
3127.573718  	99.875419 
3128.999230  	99.908638 
3130.424742  	99.855933 
3131.850254  	99.783377 
3133.275766  	99.796251 
3134.701279  	99.790417 
3136.126791  	99.726534 
3137.552303  	99.724556 
3138.977815  	99.756782 
3140.403327  	99.733418 
3141.828839  	99.706181 
3143.254352  	99.711772 
3144.679864  	99.728923 
3146.105376  	99.755987 
3147.530888  	99.774562 
3148.956400  	99.792279 
3150.381913  	99.815719 
3151.807425  	99.786389 
3153.232937  	99.729089 
3154.658449  	99.732687 
3156.083961  	99.769503 
3157.509473  	99.764429 
3158.934986  	99.725361 
3160.360498  	99.724252 
3161.786010  	99.765410 
3163.211522  	99.776996 
3164.637034  	99.776726 
3166.062546  	99.781039 
3167.488059  	99.751569 
3168.913571  	99.769230 
3170.339083  	99.811852 
3171.764595  	99.745281 
3173.190107  	99.703765 
3174.615620  	99.758001 
3176.041132  	99.725356 
3177.466644  	99.666056 
3178.892156  	99.713254 
3180.317668  	99.740828 
3181.743180  	99.730188 
3183.168693  	99.803203 
3184.594205  	99.878303 
3186.019717  	99.813876 
3187.445229  	99.726490 
3188.870741  	99.772998 
3190.296254  	99.843938 
3191.721766  	99.839858 
3193.147278  	99.818477 
3194.572790  	99.774764 
3195.998302  	99.772473 
3197.423814  	99.882716 
3198.849327  	99.933729 
3200.274839  	99.855294 
3201.700351  	99.774147 
3203.125863  	99.729890 
3204.551375  	99.743854 
3205.976887  	99.787757 
3207.402400  	99.788667 
3208.827912  	99.808037 
3210.253424  	99.840957 
3211.678936  	99.777074 
3213.104448  	99.661458 
3214.529961  	99.604521 
3215.955473  	99.642570 
3217.380985  	99.736866 
3218.806497  	99.785344 
3220.232009  	99.735579 
3221.657521  	99.646397 
3223.083034  	99.618987 
3224.508546  	99.688753 
3225.934058  	99.768026 
3227.359570  	99.787263 
3228.785082  	99.781390 
3230.210594  	99.769467 
3231.636107  	99.742897 
3233.061619  	99.743138 
3234.487131  	99.787122 
3235.912643  	99.795440 
3237.338155  	99.761284 
3238.763668  	99.770583 
3240.189180  	99.759235 
3241.614692  	99.678560 
3243.040204  	99.673004 
3244.465716  	99.759190 
3245.891228  	99.813695 
3247.316741  	99.808653 
3248.742253  	99.773361 
3250.167765  	99.758119 
3251.593277  	99.761058 
3253.018789  	99.761800 
3254.444301  	99.790048 
3255.869814  	99.758032 
3257.295326  	99.686541 
3258.720838  	99.749452 
3260.146350  	99.820337 
3261.571862  	99.801781 
3262.997375  	99.837733 
3264.422887  	99.861319 
3265.848399  	99.826468 
3267.273911  	99.799601 
3268.699423  	99.746774 
3270.124935  	99.779617 
3271.550448  	99.875981 
3272.975960  	99.832835 
3274.401472  	99.791492 
3275.826984  	99.847563 
3277.252496  	99.885146 
3278.678009  	99.918963 
3280.103521  	99.889142 
3281.529033  	99.856579 
3282.954545  	99.938442 
3284.380057  	99.883445 
3285.805569  	99.738417 
3287.231082  	99.802857 
3288.656594  	99.864593 
3290.082106  	99.806117 
3291.507618  	99.821820 
3292.933130  	99.835357 
3294.358642  	99.787767 
3295.784155  	99.758214 
3297.209667  	99.760856 
3298.635179  	99.842267 
3300.060691  	99.915320 
3301.486203  	99.879873 
3302.911716  	99.848752 
3304.337228  	99.841651 
3305.762740  	99.851623 
3307.188252  	99.936469 
3308.613764  	99.955499 
3310.039276  	99.892079 
3311.464789  	99.923129 
3312.890301  	99.940785 
3314.315813  	99.855947 
3315.741325  	99.832932 
3317.166837  	99.867195 
3318.592349  	99.906573 
3320.017862  	99.984305 
3321.443374  	99.998476 
3322.868886  	99.949195 
3324.294398  	99.936370 
3325.719910  	99.902522 
3327.145423  	99.900459 
3328.570935  	99.982740 
3329.996447  	100.007423 
3331.421959  	100.027031 
3332.847471  	100.086075 
3334.272983  	100.026161 
3335.698496  	99.964354 
3337.124008  	100.028865 
3338.549520  	100.048285 
3339.975032  	99.998702 
3341.400544  	99.967105 
3342.826057  	99.959161 
3344.251569  	99.980409 
3345.677081  	99.988815 
3347.102593  	99.997592 
3348.528105  	100.019769 
3349.953617  	99.985252 
3351.379130  	99.984991 
3352.804642  	100.045168 
3354.230154  	100.005976 
3355.655666  	99.908013 
3357.081178  	99.850656 
3358.506690  	99.874379 
3359.932203  	100.038911 
3361.357715  	100.163201 
3362.783227  	100.128181 
3364.208739  	100.154747 
3365.634251  	100.257888 
3367.059764  	100.264609 
3368.485276  	100.211860 
3369.910788  	100.177263 
3371.336300  	100.138432 
3372.761812  	100.089357 
3374.187324  	100.099408 
3375.612837  	100.163972 
3377.038349  	100.159725 
3378.463861  	100.128656 
3379.889373  	100.153523 
3381.314885  	100.148540 
3382.740397  	100.151608 
3384.165910  	100.214134 
3385.591422  	100.239496 
3387.016934  	100.257638 
3388.442446  	100.253915 
3389.867958  	100.173768 
3391.293471  	100.167228 
3392.718983  	100.206653 
3394.144495  	100.171222 
3395.570007  	100.198391 
3396.995519  	100.243468 
3398.421031  	100.181723 
3399.846544  	100.178408 
3401.272056  	100.216963 
3402.697568  	100.171359 
3404.123080  	100.195244 
3405.548592  	100.259745 
3406.974105  	100.165451 
3408.399617  	100.061941 
3409.825129  	100.132359 
3411.250641  	100.277032 
3412.676153  	100.387751 
3414.101665  	100.413235 
3415.527178  	100.356217 
3416.952690  	100.330767 
3418.378202  	100.342611 
3419.803714  	100.318907 
3421.229226  	100.342067 
3422.654738  	100.415143 
3424.080251  	100.398462 
3425.505763  	100.321365 
3426.931275  	100.269736 
3428.356787  	100.245716 
3429.782299  	100.282781 
3431.207812  	100.329764 
3432.633324  	100.281716 
3434.058836  	100.235106 
3435.484348  	100.312475 
3436.909860  	100.411575 
3438.335372  	100.376900 
3439.760885  	100.243669 
3441.186397  	100.177647 
3442.611909  	100.214399 
3444.037421  	100.248616 
3445.462933  	100.276093 
3446.888445  	100.344470 
3448.313958  	100.391434 
3449.739470  	100.380451 
3451.164982  	100.356464 
3452.590494  	100.338167 
3454.016006  	100.335979 
3455.441519  	100.394420 
3456.867031  	100.480430 
3458.292543  	100.444858 
3459.718055  	100.319477 
3461.143567  	100.322156 
3462.569079  	100.429695 
3463.994592  	100.481584 
3465.420104  	100.477736 
3466.845616  	100.426915 
3468.271128  	100.401089 
3469.696640  	100.481911 
3471.122152  	100.520653 
3472.547665  	100.494100 
3473.973177  	100.541287 
3475.398689  	100.575006 
3476.824201  	100.562505 
3478.249713  	100.584328 
3479.675226  	100.524050 
3481.100738  	100.384860 
3482.526250  	100.362775 
3483.951762  	100.444973 
3485.377274  	100.491114 
3486.802786  	100.439563 
3488.228299  	100.326573 
3489.653811  	100.272755 
3491.079323  	100.339537 
3492.504835  	100.478540 
3493.930347  	100.556644 
3495.355860  	100.501013 
3496.781372  	100.436642 
3498.206884  	100.488542 
3499.632396  	100.631116 
3501.057908  	100.724143 
3502.483420  	100.630518 
3503.908933  	100.525697 
3505.334445  	100.616445 
3506.759957  	100.708973 
3508.185469  	100.687603 
3509.610981  	100.661204 
3511.036493  	100.630195 
3512.462006  	100.561483 
3513.887518  	100.515127 
3515.313030  	100.541266 
3516.738542  	100.609229 
3518.164054  	100.630069 
3519.589567  	100.610170 
3521.015079  	100.641800 
3522.440591  	100.729175 
3523.866103  	100.789936 
3525.291615  	100.765309 
3526.717127  	100.708087 
3528.142640  	100.656699 
3529.568152  	100.616264 
3530.993664  	100.657339 
3532.419176  	100.690123 
3533.844688  	100.610926 
3535.270200  	100.609714 
3536.695713  	100.653918 
3538.121225  	100.544347 
3539.546737  	100.516414 
3540.972249  	100.606863 
3542.397761  	100.608868 
3543.823274  	100.609212 
3545.248786  	100.608022 
3546.674298  	100.608625 
3548.099810  	100.608546 
3549.525322  	100.607741 
3550.950834  	100.616629 
3552.376347  	100.628086 
3553.801859  	100.631757 
3555.227371  	100.632376 
3556.652883  	100.637544 
3558.078395  	100.641467 
3559.503908  	100.646624 
3560.929420  	100.652515 
3562.354932  	100.659840 
3563.780444  	100.670514 
3565.205956  	100.680952 
3566.631468  	100.684513 
3568.056981  	100.681660 
3569.482493  	100.677515 
3570.908005  	100.679296 
3572.333517  	100.694048 
3573.759029  	100.690460 
3575.184541  	100.687836 
3576.610054  	100.686354 
3578.035566  	100.687889 
3579.461078  	100.692046 
3580.886590  	100.692781 
3582.312102  	100.691987 
3583.737615  	100.693434 
3585.163127  	100.698726 
3586.588639  	100.703159 
3588.014151  	100.697700 
3589.439663  	100.690116 
3590.865175  	100.693774 
3592.290688  	100.701040 
3593.716200  	100.704959 
3595.141712  	100.707276 
3596.567224  	100.708088 
3597.992736  	100.707972 
3599.418248  	100.708300 
3600.843761  	100.705653 
3602.269273  	100.703959 
3603.694785  	100.702733 
3605.120297  	100.696992 
3606.545809  	100.692706 
3607.971322  	100.689970 
3609.396834  	100.680043 
3610.822346  	100.669072 
3612.247858  	100.669425 
3613.673370  	100.676388 
3615.098882  	100.676188 
3616.524395  	100.674710 
3617.949907  	100.685889 
3619.375419  	100.694264 
3620.800931  	100.694650 
3622.226443  	100.697427 
3623.651955  	100.705578 
3625.077468  	100.709488 
3626.502980  	100.704112 
3627.928492  	100.699617 
3629.354004  	100.697021 
3630.779516  	100.693252 
3632.205029  	100.688427 
3633.630541  	100.683396 
3635.056053  	100.678255 
3636.481565  	100.684806 
3637.907077  	100.656957 
3639.332589  	100.641875 
3640.758102  	100.636688 
3642.183614  	100.672816 
3643.609126  	100.677058 
3645.034638  	100.707696 
3646.460150  	100.727793 
3647.885663  	100.736243 
3649.311175  	100.745685 
3650.736687  	100.755088 
3652.162199  	100.762255 
3653.587711  	100.779150 
3655.013223  	100.782491 
3656.438736  	100.785077 
3657.864248  	100.790921 
3659.289760  	100.822392 
3660.715272  	100.812163 
3662.140784  	100.750955 
3663.566296  	100.692166 
3664.991809  	100.771177 
3666.417321  	100.786425 
3667.842833  	100.778145 
3669.268345  	100.766094 
3670.693857  	100.761710 
3672.119370  	100.769721 
3673.544882  	100.783362 
3674.970394  	100.801051 
3676.395906  	100.821762 
3677.821418  	100.830773 
3679.246930  	100.829350 
3680.672443  	100.838236 
3682.097955  	100.960550 
3683.523467  	100.877553 
3684.948979  	100.881601 
3686.374491  	100.882005 
3687.800003  	100.879935 
3689.225516  	100.874531 
3690.651028  	100.880117 
3692.076540  	100.881927 
3693.502052  	100.869619 
3694.927564  	100.854658 
3696.353077  	100.857478 
3697.778589  	100.847512 
3699.204101  	100.827551 
3700.629613  	100.815103 
3702.055125  	100.811040 
3703.480637  	100.820153 
3704.906150  	100.812397 
3706.331662  	100.851456 
3707.757174  	100.867013 
3709.182686  	100.872152 
3710.608198  	100.879713 
3712.033711  	100.887769 
3713.459223  	100.881119 
3714.884735  	100.865437 
3716.310247  	100.939283 
3717.735759  	100.855924 
3719.161271  	100.843329 
3720.586784  	100.830173 
3722.012296  	100.821515 
3723.437808  	100.812367 
3724.863320  	100.795703 
3726.288832  	100.780306 
3727.714344  	100.767811 
3729.139857  	100.750791 
3730.565369  	100.732297 
3731.990881  	100.706874 
3733.416393  	100.688957 
3734.841905  	100.667691 
3736.267418  	100.644498 
3737.692930  	100.643458 
3739.118442  	100.665231 
3740.543954  	100.677357 
3741.969466  	100.685455 
3743.394978  	100.700719 
3744.820491  	100.712759 
3746.246003  	100.726548 
3747.671515  	100.747164 
3749.097027  	100.767873 
3750.522539  	100.780883 
3751.948051  	100.787426 
3753.373564  	100.799294 
3754.799076  	100.820454 
3756.224588  	100.832859 
3757.650100  	100.832219 
3759.075612  	100.844961 
3760.501125  	100.862495 
3761.926637  	100.858735 
3763.352149  	100.835734 
3764.777661  	100.850775 
3766.203173  	100.857651 
3767.628685  	100.856454 
3769.054198  	100.856860 
3770.479710  	100.856045 
3771.905222  	100.854153 
3773.330734  	100.779632 
3774.756246  	100.842489 
3776.181759  	100.865156 
3777.607271  	100.863873 
3779.032783  	100.855675 
3780.458295  	100.859659 
3781.883807  	100.868764 
3783.309319  	100.862363 
3784.734832  	100.859199 
3786.160344  	100.868015 
3787.585856  	100.868297 
3789.011368  	100.864869 
3790.436880  	100.867794 
3791.862392  	100.876557 
3793.287905  	100.869035 
3794.713417  	100.870781 
3796.138929  	100.873850 
3797.564441  	100.869707 
3798.989953  	100.869470 
3800.415466  	100.877627 
3801.840978  	100.882089 
3803.266490  	100.882566 
3804.692002  	100.893888 
3806.117514  	100.903744 
3807.543026  	100.905420 
3808.968539  	100.908849 
3810.394051  	100.882928 
3811.819563  	100.935851 
3813.245075  	100.929803 
3814.670587  	100.925509 
3816.096099  	100.927427 
3817.521612  	100.930407 
3818.947124  	100.925896 
3820.372636  	100.921316 
3821.798148  	100.924110 
3823.223660  	100.923260 
3824.649173  	100.916800 
3826.074685  	100.916073 
3827.500197  	100.913797 
3828.925709  	100.895083 
3830.351221  	100.881322 
3831.776733  	100.884810 
3833.202246  	100.881162 
3834.627758  	100.862180 
3836.053270  	100.856325 
3837.478782  	100.863085 
3838.904294  	100.862205 
3840.329806  	100.854415 
3841.755319  	100.861438 
3843.180831  	100.865894 
3844.606343  	100.857549 
3846.031855  	100.844905 
3847.457367  	100.830073 
3848.882880  	100.849315 
3850.308392  	100.847571 
3851.733904  	100.849261 
3853.159416  	100.861869 
3854.584928  	100.875147 
3856.010440  	100.878008 
3857.435953  	100.880120 
3858.861465  	100.893422 
3860.286977  	100.897214 
3861.712489  	100.884460 
3863.138001  	100.883766 
3864.563514  	100.894104 
3865.989026  	100.885608 
3867.414538  	100.878747 
3868.840050  	100.893517 
3870.265562  	100.910505 
3871.691074  	100.909786 
3873.116587  	100.902252 
3874.542099  	100.908582 
3875.967611  	100.916025 
3877.393123  	100.905048 
3878.818635  	100.895675 
3880.244147  	100.897929 
3881.669660  	100.898097 
3883.095172  	100.888783 
3884.520684  	100.890440 
3885.946196  	100.903873 
3887.371708  	100.912958 
3888.797221  	100.914768 
3890.222733  	100.925300 
3891.648245  	100.938726 
3893.073757  	100.943117 
3894.499269  	100.945998 
3895.924781  	100.957037 
3897.350294  	100.967866 
3898.775806  	100.971146 
3900.201318  	100.979223 
3901.626830  	100.995442 
3903.052342  	101.010945 
3904.477854  	101.019515 
3905.903367  	101.027997 
3907.328879  	101.035523 
3908.754391  	101.039193 
3910.179903  	101.049248 
3911.605415  	101.044963 
3913.030928  	101.040168 
3914.456440  	101.037153 
3915.881952  	101.037186 
3917.307464  	101.034691 
3918.732976  	101.034875 
3920.158488  	101.039916 
3921.584001  	101.044622 
3923.009513  	101.044008 
3924.435025  	101.040415 
3925.860537  	101.038389 
3927.286049  	101.039750 
3928.711562  	101.039869 
3930.137074  	101.039130 
3931.562586  	101.042404 
3932.988098  	101.047966 
3934.413610  	101.051208 
3935.839122  	101.032399 
3937.264635  	101.069146 
3938.690147  	101.079096 
3940.115659  	101.086568 
3941.541171  	101.099864 
3942.966683  	101.112243 
3944.392195  	101.116187 
3945.817708  	101.118701 
3947.243220  	101.124751 
3948.668732  	101.130537 
3950.094244  	101.134730 
3951.519756  	101.138203 
3952.945269  	101.152425 
3954.370781  	101.282125 
3955.796293  	101.159515 
3957.221805  	101.160753 
3958.647317  	101.130641 
3960.072829  	101.124613 
3961.498342  	101.134407 
3962.923854  	101.149965 
3964.349366  	101.168323 
3965.774878  	101.150732 
3967.200390  	101.141905 
3968.625902  	101.223905 
3970.051415  	101.237511 
3971.476927  	101.133934 
3972.902439  	101.119501 
3974.327951  	101.186295 
3975.753463  	101.227716 
3977.178976  	101.247259 
3978.604488  	101.234321 
3980.030000  	101.231962 
3981.455512  	101.227973 
3982.881024  	101.160531 
3984.306536  	101.139619 
3985.732049  	101.185974 
3987.157561  	101.195825 
3988.583073  	101.207880 
3990.008585  	101.212041 
3991.434097  	101.162941 
3992.859610  	101.179137 
3994.285122  	101.262886 
3995.710634  	101.267181 
3997.136146  	101.220482 
3998.561658  	101.219159 
3999.987170  	101.208541 