##TITLE=EP ATR
##DATA TYPE=INFRARED SPECTRUM
##XUNITS=1/CM
##YUNITS=%T
500.354774  	95.279181 
501.780287  	94.436398 
503.205799  	94.401364 
504.631311  	94.711279 
506.056823  	94.474141 
507.482335  	94.310142 
508.907847  	94.369123 
510.333360  	94.386725 
511.758872  	94.529773 
513.184384  	94.760954 
514.609896  	94.826015 
516.035408  	94.461422 
517.460920  	94.208658 
518.886433  	94.913862 
520.311945  	95.303278 
521.737457  	94.607120 
523.162969  	94.296727 
524.588481  	94.409399 
526.013994  	93.986194 
527.439506  	93.731192 
528.865018  	93.928222 
530.290530  	94.282396 
531.716042  	94.844677 
533.141554  	94.964342 
534.567067  	94.806601 
535.992579  	95.145383 
537.418091  	95.319168 
538.843603  	95.081352 
540.269115  	95.015799 
541.694627  	94.847447 
543.120140  	94.790016 
544.545652  	95.187520 
545.971164  	95.279567 
547.396676  	95.035869 
548.822188  	95.205462 
550.247701  	95.624093 
551.673213  	95.770928 
553.098725  	95.687587 
554.524237  	95.624670 
555.949749  	95.398174 
557.375261  	94.971392 
558.800774  	94.932277 
560.226286  	95.161143 
561.651798  	95.057427 
563.077310  	94.956127 
564.502822  	95.071561 
565.928335  	94.960647 
567.353847  	94.605967 
568.779359  	94.287037 
570.204871  	94.256635 
571.630383  	94.544752 
573.055895  	94.766019 
574.481408  	94.843179 
575.906920  	94.993563 
577.332432  	95.033850 
578.757944  	94.933248 
580.183456  	95.027962 
581.608968  	95.315424 
583.034481  	95.468207 
584.459993  	95.473887 
585.885505  	95.430313 
587.311017  	95.275864 
588.736529  	95.292699 
590.162042  	95.619921 
591.587554  	95.631692 
593.013066  	95.369507 
594.438578  	95.511176 
595.864090  	95.741585 
597.289602  	95.683885 
598.715115  	95.539736 
600.140627  	95.425123 
601.566139  	95.604896 
602.991651  	95.877691 
604.417163  	95.697595 
605.842675  	95.479567 
607.268188  	95.622144 
608.693700  	95.796877 
610.119212  	95.964268 
611.544724  	95.887019 
612.970236  	95.709197 
614.395749  	95.828240 
615.821261  	95.932388 
617.246773  	95.948574 
618.672285  	95.994243 
620.097797  	96.052081 
621.523309  	96.105146 
622.948822  	96.100740 
624.374334  	96.116038 
625.799846  	96.161416 
627.225358  	96.160635 
628.650870  	95.979474 
630.076383  	96.175913 
631.501895  	96.286396 
632.927407  	96.306046 
634.352919  	96.334412 
635.778431  	96.359386 
637.203943  	96.416273 
638.629456  	96.527010 
640.054968  	96.430947 
641.480480  	96.550607 
642.905992  	96.485179 
644.331504  	96.475128 
645.757016  	96.437399 
647.182529  	96.495907 
648.608041  	96.516844 
650.033553  	96.522252 
651.459065  	96.521435 
652.884577  	96.466789 
654.310090  	96.542704 
655.735602  	96.544638 
657.161114  	96.653818 
658.586626  	96.551480 
660.012138  	96.555493 
661.437650  	96.587636 
662.863163  	96.566309 
664.288675  	96.607511 
665.714187  	96.581240 
667.139699  	96.596654 
668.565211  	96.611280 
669.990723  	96.616808 
671.416236  	96.451736 
672.841748  	96.617224 
674.267260  	96.640450 
675.692772  	96.577749 
677.118284  	96.685378 
678.543797  	96.827650 
679.969309  	96.758760 
681.394821  	96.759734 
682.820333  	96.692247 
684.245845  	96.797334 
685.671357  	96.942674 
687.096870  	97.181927 
688.522382  	96.896516 
689.947894  	96.761129 
691.373406  	96.865693 
692.798918  	96.953224 
694.224430  	96.920495 
695.649943  	96.909421 
697.075455  	96.900243 
698.500967  	96.884601 
699.926479  	96.875404 
701.351991  	96.867484 
702.777504  	96.876067 
704.203016  	96.881970 
705.628528  	96.881616 
707.054040  	96.881380 
708.479552  	96.880303 
709.905064  	96.926175 
711.330577  	96.903267 
712.756089  	96.772175 
714.181601  	96.916731 
715.607113  	97.016510 
717.032625  	97.087440 
718.458138  	97.016396 
719.883650  	97.035970 
721.309162  	97.058539 
722.734674  	97.074617 
724.160186  	97.100455 
725.585698  	97.136926 
727.011211  	97.159207 
728.436723  	97.150408 
729.862235  	97.126722 
731.287747  	97.148518 
732.713259  	97.253212 
734.138771  	97.245021 
735.564284  	97.252168 
736.989796  	97.181147 
738.415308  	97.149458 
739.840820  	97.233361 
741.266332  	97.323685 
742.691845  	97.379450 
744.117357  	97.374197 
745.542869  	97.360967 
746.968381  	97.358967 
748.393893  	97.253022 
749.819405  	97.146894 
751.244918  	97.167726 
752.670430  	97.122841 
754.095942  	97.020914 
755.521454  	97.098804 
756.946966  	97.175184 
758.372478  	97.044310 
759.797991  	96.986747 
761.223503  	97.076992 
762.649015  	97.097306 
764.074527  	97.177148 
765.500039  	97.331446 
766.925552  	97.271959 
768.351064  	97.172371 
769.776576  	97.300105 
771.202088  	97.434956 
772.627600  	97.432446 
774.053112  	97.423676 
775.478625  	97.493916 
776.904137  	97.615463 
778.329649  	97.683747 
779.755161  	97.674712 
781.180673  	97.635483 
782.606186  	97.559018 
784.031698  	97.509888 
785.457210  	97.554393 
786.882722  	97.605230 
788.308234  	97.584036 
789.733746  	97.520579 
791.159259  	97.495997 
792.584771  	97.522491 
794.010283  	97.529496 
795.435795  	97.561376 
796.861307  	97.674134 
798.286819  	97.759296 
799.712332  	97.747679 
801.137844  	97.690777 
802.563356  	97.647221 
803.988868  	97.656702 
805.414380  	97.714548 
806.839893  	97.764376 
808.265405  	97.763910 
809.690917  	97.769846 
811.116429  	97.817863 
812.541941  	97.839388 
813.967453  	97.815282 
815.392966  	97.694903 
816.818478  	97.508464 
818.243990  	97.537973 
819.669502  	97.723034 
821.095014  	97.715851 
822.520526  	97.618833 
823.946039  	97.579986 
825.371551  	97.530741 
826.797063  	97.551047 
828.222575  	97.590521 
829.648087  	97.537040 
831.073600  	97.497476 
832.499112  	97.466874 
833.924624  	97.418383 
835.350136  	97.427415 
836.775648  	97.457242 
838.201160  	97.515027 
839.626673  	97.591995 
841.052185  	97.560432 
842.477697  	97.464731 
843.903209  	97.436082 
845.328721  	97.455494 
846.754234  	97.398155 
848.179746  	97.267927 
849.605258  	97.298622 
851.030770  	97.475746 
852.456282  	97.510703 
853.881794  	97.432034 
855.307307  	97.401714 
856.732819  	97.401368 
858.158331  	97.407736 
859.583843  	97.407216 
861.009355  	97.417358 
862.434867  	97.434572 
863.860380  	97.432615 
865.285892  	97.495519 
866.711404  	97.539948 
868.136916  	97.472226 
869.562428  	97.512134 
870.987941  	97.644542 
872.413453  	97.670713 
873.838965  	97.653358 
875.264477  	97.601460 
876.689989  	97.574857 
878.115501  	97.699681 
879.541014  	97.731415 
880.966526  	97.581362 
882.392038  	97.530275 
883.817550  	97.568837 
885.243062  	97.545342 
886.668574  	97.497905 
888.094087  	97.475021 
889.519599  	97.485339 
890.945111  	97.490584 
892.370623  	97.469475 
893.796135  	97.463926 
895.221648  	97.444982 
896.647160  	97.389687 
898.072672  	97.351517 
899.498184  	97.324424 
900.923696  	97.276894 
902.349208  	97.255564 
903.774721  	97.310024 
905.200233  	97.358504 
906.625745  	97.288787 
908.051257  	97.179014 
909.476769  	97.163104 
910.902281  	97.195791 
912.327794  	97.161880 
913.753306  	97.057955 
915.178818  	96.974536 
916.604330  	96.941965 
918.029842  	96.920351 
919.455355  	96.921034 
920.880867  	96.940196 
922.306379  	96.925243 
923.731891  	96.877476 
925.157403  	96.846189 
926.582915  	96.869023 
928.008428  	96.882203 
929.433940  	96.832980 
930.859452  	96.851633 
932.284964  	96.937857 
933.710476  	96.918629 
935.135989  	96.865625 
936.561501  	96.917056 
937.987013  	96.989643 
939.412525  	96.980221 
940.838037  	96.913786 
942.263549  	96.903301 
943.689062  	96.965637 
945.114574  	96.999227 
946.540086  	97.003575 
947.965598  	96.991583 
949.391110  	96.940715 
950.816622  	96.882853 
952.242135  	96.790948 
953.667647  	96.713516 
955.093159  	96.734120 
956.518671  	96.706068 
957.944183  	96.612855 
959.369696  	96.578466 
960.795208  	96.488137 
962.220720  	96.342904 
963.646232  	96.268949 
965.071744  	96.153273 
966.497256  	95.980887 
967.922769  	95.913400 
969.348281  	95.924631 
970.773793  	95.860804 
972.199305  	95.689585 
973.624817  	95.527738 
975.050329  	95.406127 
976.475842  	95.250685 
977.901354  	95.115397 
979.326866  	95.041221 
980.752378  	94.966204 
982.177890  	94.857237 
983.603403  	94.702867 
985.028915  	94.598077 
986.454427  	94.585530 
987.879939  	94.512771 
989.305451  	94.387293 
990.730963  	94.314864 
992.156476  	94.283110 
993.581988  	94.323956 
995.007500  	94.385364 
996.433012  	94.376350 
997.858524  	94.400054 
999.284037  	94.496177 
1000.709549  	94.569474 
1002.135061  	94.593219 
1003.560573  	94.597954 
1004.986085  	94.629314 
1006.411597  	94.676727 
1007.837110  	94.709475 
1009.262622  	94.748397 
1010.688134  	94.769654 
1012.113646  	94.779127 
1013.539158  	94.829572 
1014.964670  	94.891644 
1016.390183  	94.941088 
1017.815695  	94.964789 
1019.241207  	94.992646 
1020.666719  	95.121418 
1022.092231  	95.264445 
1023.517744  	95.320462 
1024.943256  	95.398714 
1026.368768  	95.515359 
1027.794280  	95.604489 
1029.219792  	95.690970 
1030.645304  	95.750119 
1032.070817  	95.785635 
1033.496329  	95.885482 
1034.921841  	96.018300 
1036.347353  	96.093930 
1037.772865  	96.149466 
1039.198377  	96.228814 
1040.623890  	96.255074 
1042.049402  	96.245006 
1043.474914  	96.337800 
1044.900426  	96.462568 
1046.325938  	96.491771 
1047.751451  	96.535279 
1049.176963  	96.659790 
1050.602475  	96.790313 
1052.027987  	96.913036 
1053.453499  	97.045826 
1054.879011  	97.184366 
1056.304524  	97.315367 
1057.730036  	97.426445 
1059.155548  	97.487875 
1060.581060  	97.495914 
1062.006572  	97.594462 
1063.432085  	97.785729 
1064.857597  	97.804808 
1066.283109  	97.726168 
1067.708621  	97.764417 
1069.134133  	97.689342 
1070.559645  	97.475169 
1071.985158  	97.397461 
1073.410670  	97.325232 
1074.836182  	97.167145 
1076.261694  	97.117069 
1077.687206  	97.114142 
1079.112718  	97.093868 
1080.538231  	97.195191 
1081.963743  	97.328972 
1083.389255  	97.357774 
1084.814767  	97.430429 
1086.240279  	97.579216 
1087.665792  	97.647497 
1089.091304  	97.681224 
1090.516816  	97.775629 
1091.942328  	97.890375 
1093.367840  	97.986301 
1094.793352  	98.010316 
1096.218865  	98.006803 
1097.644377  	98.072877 
1099.069889  	98.085213 
1100.495401  	98.011052 
1101.920913  	98.013126 
1103.346425  	98.044221 
1104.771938  	98.059405 
1106.197450  	98.112062 
1107.622962  	98.118351 
1109.048474  	98.106369 
1110.473986  	98.136813 
1111.899499  	98.147598 
1113.325011  	98.194853 
1114.750523  	98.238570 
1116.176035  	98.180963 
1117.601547  	98.166651 
1119.027059  	98.204596 
1120.452572  	98.190261 
1121.878084  	98.206950 
1123.303596  	98.233599 
1124.729108  	98.218851 
1126.154620  	98.255069 
1127.580132  	98.309909 
1129.005645  	98.300749 
1130.431157  	98.260630 
1131.856669  	98.235552 
1133.282181  	98.232349 
1134.707693  	98.216284 
1136.133206  	98.202204 
1137.558718  	98.197692 
1138.984230  	98.111742 
1140.409742  	97.983372 
1141.835254  	97.928256 
1143.260766  	97.906556 
1144.686279  	97.878168 
1146.111791  	97.856423 
1147.537303  	97.827829 
1148.962815  	97.797774 
1150.388327  	97.778205 
1151.813840  	97.789896 
1153.239352  	97.848858 
1154.664864  	97.922739 
1156.090376  	97.989268 
1157.515888  	98.070809 
1158.941400  	98.203054 
1160.366913  	98.366218 
1161.792425  	98.483466 
1163.217937  	98.554847 
1164.643449  	98.642086 
1166.068961  	98.751336 
1167.494473  	98.879906 
1168.919986  	98.993953 
1170.345498  	99.030989 
1171.771010  	99.045491 
1173.196522  	99.121169 
1174.622034  	99.234833 
1176.047547  	99.310160 
1177.473059  	99.300745 
1178.898571  	99.274853 
1180.324083  	99.301032 
1181.749595  	99.328051 
1183.175107  	99.354555 
1184.600620  	99.383140 
1186.026132  	99.344944 
1187.451644  	99.290375 
1188.877156  	99.285643 
1190.302668  	99.278567 
1191.728180  	99.256954 
1193.153693  	99.246444 
1194.579205  	99.233170 
1196.004717  	99.205180 
1197.430229  	99.166938 
1198.855741  	99.125064 
1200.281254  	99.091228 
1201.706766  	99.095003 
1203.132278  	99.111551 
1204.557790  	99.080113 
1205.983302  	99.043321 
1207.408814  	99.035147 
1208.834327  	99.034853 
1210.259839  	99.074309 
1211.685351  	99.085877 
1213.110863  	99.007561 
1214.536375  	98.977560 
1215.961888  	99.012616 
1217.387400  	98.998225 
1218.812912  	98.948956 
1220.238424  	98.904880 
1221.663936  	98.899205 
1223.089448  	98.915924 
1224.514961  	98.864578 
1225.940473  	98.800566 
1227.365985  	98.776024 
1228.791497  	98.722988 
1230.217009  	98.708942 
1231.642521  	98.753473 
1233.068034  	98.723357 
1234.493546  	98.662091 
1235.919058  	98.669986 
1237.344570  	98.694830 
1238.770082  	98.700546 
1240.195595  	98.694173 
1241.621107  	98.666879 
1243.046619  	98.637923 
1244.472131  	98.629125 
1245.897643  	98.639186 
1247.323155  	98.665277 
1248.748668  	98.688577 
1250.174180  	98.684779 
1251.599692  	98.690155 
1253.025204  	98.740703 
1254.450716  	98.773295 
1255.876228  	98.770677 
1257.301741  	98.798322 
1258.727253  	98.818232 
1260.152765  	98.800092 
1261.578277  	98.805406 
1263.003789  	98.817221 
1264.429302  	98.827422 
1265.854814  	98.857643 
1267.280326  	98.865865 
1268.705838  	98.869034 
1270.131350  	98.886570 
1271.556862  	98.887156 
1272.982375  	98.914219 
1274.407887  	98.960551 
1275.833399  	98.961699 
1277.258911  	98.960885 
1278.684423  	98.971717 
1280.109935  	98.963344 
1281.535448  	98.976850 
1282.960960  	98.997010 
1284.386472  	98.978235 
1285.811984  	98.949926 
1287.237496  	98.929000 
1288.663009  	98.922580 
1290.088521  	98.931217 
1291.514033  	98.919198 
1292.939545  	98.901201 
1294.365057  	98.898632 
1295.790569  	98.889403 
1297.216082  	98.893722 
1298.641594  	98.908168 
1300.067106  	98.895327 
1301.492618  	98.892356 
1302.918130  	98.893642 
1304.343643  	98.882907 
1305.769155  	98.878943 
1307.194667  	98.873900 
1308.620179  	98.869018 
1310.045691  	98.863337 
1311.471203  	98.856220 
1312.896716  	98.849360 
1314.322228  	98.842225 
1315.747740  	98.834840 
1317.173252  	98.829143 
1318.598764  	98.823590 
1320.024276  	98.817331 
1321.449789  	98.811188 
1322.875301  	98.806245 
1324.300813  	98.800957 
1325.726325  	98.769015 
1327.151837  	98.793038 
1328.577350  	98.789247 
1330.002862  	98.787294 
1331.428374  	98.786044 
1332.853886  	98.785717 
1334.279398  	98.782841 
1335.704910  	98.781125 
1337.130423  	98.779621 
1338.555935  	98.779019 
1339.981447  	98.779609 
1341.406959  	98.778974 
1342.832471  	98.775498 
1344.257983  	98.773054 
1345.683496  	98.765833 
1347.109008  	98.773132 
1348.534520  	98.773134 
1349.960032  	98.774295 
1351.385544  	98.777873 
1352.811057  	98.770500 
1354.236569  	98.773330 
1355.662081  	98.772312 
1357.087593  	98.773216 
1358.513105  	98.773865 
1359.938617  	98.777314 
1361.364130  	98.781514 
1362.789642  	98.785382 
1364.215154  	98.789903 
1365.640666  	98.782745 
1367.066178  	98.807176 
1368.491691  	98.816308 
1369.917203  	98.823579 
1371.342715  	98.831258 
1372.768227  	98.840743 
1374.193739  	98.850818 
1375.619251  	98.862676 
1377.044764  	98.876072 
1378.470276  	98.889400 
1379.895788  	98.903195 
1381.321300  	98.916730 
1382.746812  	98.930008 
1384.172324  	98.935002 
1385.597837  	98.951693 
1387.023349  	98.962992 
1388.448861  	98.971906 
1389.874373  	98.979477 
1391.299885  	98.986409 
1392.725398  	98.991965 
1394.150910  	98.997162 
1395.576422  	99.003508 
1397.001934  	99.008576 
1398.427446  	99.012569 
1399.852958  	99.016144 
1401.278471  	99.019409 
1402.703983  	99.021423 
1404.129495  	99.023179 
1405.555007  	99.025120 
1406.980519  	99.028194 
1408.406031  	99.021092 
1409.831544  	99.032564 
1411.257056  	99.033707 
1412.682568  	99.034310 
1414.108080  	99.032733 
1415.533592  	99.031663 
1416.959105  	99.033071 
1418.384617  	99.035727 
1419.810129  	99.037185 
1421.235641  	99.038885 
1422.661153  	99.040246 
1424.086665  	99.042227 
1425.512178  	99.043681 
1426.937690  	99.008780 
1428.363202  	99.049466 
1429.788714  	99.050907 
1431.214226  	99.052167 
1432.639739  	99.054633 
1434.065251  	99.058198 
1435.490763  	99.065322 
1436.916275  	99.076116 
1438.341787  	99.087730 
1439.767299  	99.098418 
1441.192812  	99.104781 
1442.618324  	99.108583 
1444.043836  	99.082673 
1445.469348  	99.131632 
1446.894860  	99.139161 
1448.320372  	99.145927 
1449.745885  	99.153835 
1451.171397  	99.161843 
1452.596909  	99.171216 
1454.022421  	99.181352 
1455.447933  	99.190197 
1456.873446  	99.200039 
1458.298958  	99.210735 
1459.724470  	99.218935 
1461.149982  	99.225493 
1462.575494  	99.236597 
1464.001006  	99.251376 
1465.426519  	99.267396 
1466.852031  	99.281782 
1468.277543  	99.290016 
1469.703055  	99.295501 
1471.128567  	99.307113 
1472.554079  	99.321241 
1473.979592  	99.334951 
1475.405104  	99.348263 
1476.830616  	99.360586 
1478.256128  	99.372590 
1479.681640  	99.383762 
1481.107153  	99.396518 
1482.532665  	99.406504 
1483.958177  	99.434313 
1485.383689  	99.423242 
1486.809201  	99.427670 
1488.234713  	99.429577 
1489.660226  	99.431936 
1491.085738  	99.437047 
1492.511250  	99.444725 
1493.936762  	99.452142 
1495.362274  	99.451954 
1496.787786  	99.450955 
1498.213299  	99.451874 
1499.638811  	99.451329 
1501.064323  	99.447367 
1502.489835  	99.451561 
1503.915347  	99.445016 
1505.340860  	99.443474 
1506.766372  	99.442761 
1508.191884  	99.445356 
1509.617396  	99.445368 
1511.042908  	99.439050 
1512.468420  	99.433788 
1513.893933  	99.432286 
1515.319445  	99.432390 
1516.744957  	99.429222 
1518.170469  	99.424613 
1519.595981  	99.427223 
1521.021494  	99.429367 
1522.447006  	99.425484 
1523.872518  	99.421890 
1525.298030  	99.422595 
1526.723542  	99.424539 
1528.149054  	99.423433 
1529.574567  	99.420763 
1531.000079  	99.423217 
1532.425591  	99.414119 
1533.851103  	99.409792 
1535.276615  	99.410464 
1536.702127  	99.411842 
1538.127640  	99.410661 
1539.553152  	99.407065 
1540.978664  	99.405268 
1542.404176  	99.404697 
1543.829688  	99.401526 
1545.255201  	99.400299 
1546.680713  	99.407770 
1548.106225  	99.408661 
1549.531737  	99.408226 
1550.957249  	99.405975 
1552.382761  	99.404690 
1553.808274  	99.403807 
1555.233786  	99.401937 
1556.659298  	99.401070 
1558.084810  	99.403512 
1559.510322  	99.406921 
1560.935834  	99.408231 
1562.361347  	99.409761 
1563.786859  	99.410333 
1565.212371  	99.406702 
1566.637883  	99.404278 
1568.063395  	99.405600 
1569.488908  	99.402353 
1570.914420  	99.391110 
1572.339932  	99.431141 
1573.765444  	99.381389 
1575.190956  	99.377274 
1576.616468  	99.374127 
1578.041981  	99.374244 
1579.467493  	99.388623 
1580.893005  	99.374735 
1582.318517  	99.371449 
1583.744029  	99.306780 
1585.169542  	99.359888 
1586.595054  	99.348367 
1588.020566  	99.351140 
1589.446078  	99.349367 
1590.871590  	99.389043 
1592.297102  	99.341956 
1593.722615  	99.336025 
1595.148127  	99.333844 
1596.573639  	99.333976 
1597.999151  	99.355902 
1599.424663  	99.328581 
1600.850175  	99.322842 
1602.275688  	99.317507 
1603.701200  	99.312243 
1605.126712  	99.281927 
1606.552224  	99.305820 
1607.977736  	99.304482 
1609.403249  	99.302351 
1610.828761  	99.297514 
1612.254273  	99.257649 
1613.679785  	99.273065 
1615.105297  	99.279324 
1616.530809  	99.275924 
1617.956322  	99.272353 
1619.381834  	99.299795 
1620.807346  	99.294472 
1622.232858  	99.252900 
1623.658370  	99.250637 
1625.083882  	99.248905 
1626.509395  	99.226405 
1627.934907  	99.242521 
1629.360419  	99.236755 
1630.785931  	99.198060 
1632.211443  	99.220452 
1633.636956  	99.218532 
1635.062468  	99.219723 
1636.487980  	99.221250 
1637.913492  	99.223188 
1639.339004  	99.225088 
1640.764516  	99.225102 
1642.190029  	99.219880 
1643.615541  	99.220801 
1645.041053  	99.224905 
1646.466565  	99.226820 
1647.892077  	99.224869 
1649.317590  	99.223793 
1650.743102  	99.223892 
1652.168614  	99.223415 
1653.594126  	99.225582 
1655.019638  	99.232593 
1656.445150  	99.241459 
1657.870663  	99.244651 
1659.296175  	99.205427 
1660.721687  	99.246427 
1662.147199  	99.252492 
1663.572711  	99.256466 
1664.998223  	99.260113 
1666.423736  	99.271574 
1667.849248  	99.279416 
1669.274760  	99.283479 
1670.700272  	99.288228 
1672.125784  	99.294121 
1673.551297  	99.298478 
1674.976809  	99.305666 
1676.402321  	99.314683 
1677.827833  	99.320492 
1679.253345  	99.321211 
1680.678857  	99.320743 
1682.104370  	99.323321 
1683.529882  	99.328331 
1684.955394  	99.329855 
1686.380906  	99.332463 
1687.806418  	99.338551 
1689.231930  	99.337617 
1690.657443  	99.332794 
1692.082955  	99.315685 
1693.508467  	99.330359 
1694.933979  	99.326988 
1696.359491  	99.323047 
1697.785004  	99.321575 
1699.210516  	99.315085 
1700.636028  	99.303875 
1702.061540  	99.294243 
1703.487052  	99.290221 
1704.912564  	99.285962 
1706.338077  	99.276949 
1707.763589  	99.267286 
1709.189101  	99.260902 
1710.614613  	99.250233 
1712.040125  	99.234284 
1713.465637  	99.225489 
1714.891150  	99.221612 
1716.316662  	99.217390 
1717.742174  	99.211175 
1719.167686  	99.206796 
1720.593198  	99.206787 
1722.018711  	99.206294 
1723.444223  	99.202868 
1724.869735  	99.205365 
1726.295247  	99.184545 
1727.720759  	99.217328 
1729.146271  	99.218976 
1730.571784  	99.224659 
1731.997296  	99.233843 
1733.422808  	99.242016 
1734.848320  	99.250352 
1736.273832  	99.262758 
1737.699345  	99.279107 
1739.124857  	99.293101 
1740.550369  	99.304216 
1741.975881  	99.317571 
1743.401393  	99.334732 
1744.826905  	99.349663 
1746.252418  	99.363193 
1747.677930  	99.381129 
1749.103442  	99.397983 
1750.528954  	99.410076 
1751.954466  	99.422550 
1753.379978  	99.438581 
1754.805491  	99.477472 
1756.231003  	99.461165 
1757.656515  	99.467957 
1759.082027  	99.475843 
1760.507539  	99.484633 
1761.933052  	99.491247 
1763.358564  	99.496542 
1764.784076  	99.544663 
1766.209588  	99.504237 
1767.635100  	99.504505 
1769.060612  	99.504908 
1770.486125  	99.506457 
1771.911637  	99.508584 
1773.337149  	99.507122 
1774.762661  	99.502837 
1776.188173  	99.497872 
1777.613685  	99.495367 
1779.039198  	99.496472 
1780.464710  	99.501864 
1781.890222  	99.508929 
1783.315734  	99.515655 
1784.741246  	99.519428 
1786.166759  	99.521235 
1787.592271  	99.437098 
1789.017783  	99.528137 
1790.443295  	99.533933 
1791.868807  	99.538922 
1793.294319  	99.541871 
1794.719832  	99.544134 
1796.145344  	99.544707 
1797.570856  	99.545905 
1798.996368  	99.550511 
1800.421880  	99.556504 
1801.847393  	99.558348 
1803.272905  	99.555149 
1804.698417  	99.550689 
1806.123929  	99.544308 
1807.549441  	99.541679 
1808.974953  	99.536507 
1810.400466  	99.533752 
1811.825978  	99.530928 
1813.251490  	99.526338 
1814.677002  	99.512411 
1816.102514  	99.519264 
1817.528026  	99.518444 
1818.953539  	99.516084 
1820.379051  	99.512660 
1821.804563  	99.509403 
1823.230075  	99.504317 
1824.655587  	99.498458 
1826.081100  	99.494872 
1827.506612  	99.493950 
1828.932124  	99.494406 
1830.357636  	99.496324 
1831.783148  	99.498459 
1833.208660  	99.465603 
1834.634173  	99.501107 
1836.059685  	99.503141 
1837.485197  	99.505888 
1838.910709  	99.508896 
1840.336221  	99.514884 
1841.761733  	99.511809 
1843.187246  	99.511182 
1844.612758  	99.512164 
1846.038270  	99.517612 
1847.463782  	99.526570 
1848.889294  	99.536001 
1850.314807  	99.543231 
1851.740319  	99.561190 
1853.165831  	99.551346 
1854.591343  	99.552584 
1856.016855  	99.552754 
1857.442367  	99.552231 
1858.867880  	99.551696 
1860.293392  	99.553650 
1861.718904  	99.555099 
1863.144416  	99.554763 
1864.569928  	99.555048 
1865.995440  	99.556166 
1867.420953  	99.560527 
1868.846465  	99.563790 
1870.271977  	99.560269 
1871.697489  	99.553557 
1873.123001  	99.565198 
1874.548514  	99.544076 
1875.974026  	99.567354 
1877.399538  	99.543355 
1878.825050  	99.542545 
1880.250562  	99.543055 
1881.676074  	99.544304 
1883.101587  	99.477565 
1884.527099  	99.543593 
1885.952611  	99.539256 
1887.378123  	99.539397 
1888.803635  	99.541206 
1890.229148  	99.544667 
1891.654660  	99.555612 
1893.080172  	99.555851 
1894.505684  	99.560148 
1895.931196  	99.566050 
1897.356708  	99.574064 
1898.782221  	99.534776 
1900.207733  	99.600462 
1901.633245  	99.605983 
1903.058757  	99.665442 
1904.484269  	99.597555 
1905.909781  	99.587407 
1907.335294  	99.589257 
1908.760806  	99.590984 
1910.186318  	99.595938 
1911.611830  	99.779463 
1913.037342  	99.647503 
1914.462855  	99.432779 
1915.888367  	99.565381 
1917.313879  	99.556219 
1918.739391  	99.552265 
1920.164903  	99.522512 
1921.590415  	99.546461 
1923.015928  	99.532617 
1924.441440  	99.512515 
1925.866952  	99.485817 
1927.292464  	99.513687 
1928.717976  	99.524493 
1930.143488  	99.525221 
1931.569001  	99.528272 
1932.994513  	99.534013 
1934.420025  	99.531387 
1935.845537  	99.527889 
1937.271049  	99.534165 
1938.696562  	99.551345 
1940.122074  	99.556343 
1941.547586  	99.568127 
1942.973098  	99.583431 
1944.398610  	99.594116 
1945.824122  	99.534232 
1947.249635  	99.598416 
1948.675147  	99.597629 
1950.100659  	99.627565 
1951.526171  	99.628759 
1952.951683  	99.689943 
1954.377196  	99.634664 
1955.802708  	99.639667 
1957.228220  	99.632921 
1958.653732  	99.619750 
1960.079244  	99.610810 
1961.504756  	99.607783 
1962.930269  	99.611582 
1964.355781  	99.621065 
1965.781293  	99.622389 
1967.206805  	99.620514 
1968.632317  	99.542441 
1970.057829  	99.604659 
1971.483342  	99.616124 
1972.908854  	99.616317 
1974.334366  	99.608174 
1975.759878  	99.601516 
1977.185390  	99.598139 
1978.610903  	99.589675 
1980.036415  	99.581420 
1981.461927  	99.575289 
1982.887439  	99.569050 
1984.312951  	99.452869 
1985.738463  	99.542402 
1987.163976  	99.544495 
1988.589488  	99.560811 
1990.015000  	99.494583 
1991.440512  	99.487449 
1992.866024  	99.472389 
1994.291536  	99.450719 
1995.717049  	99.327037 
1997.142561  	99.301929 
1998.568073  	99.306516 
1999.993585  	99.358118 
2001.419097  	99.493667 
2002.844610  	99.626449 
2004.270122  	99.538139 
2005.695634  	99.423343 
2007.121146  	99.633002 
2008.546658  	99.777628 
2009.972170  	99.668090 
2011.397683  	99.779553 
2012.823195  	100.125756 
2014.248707  	100.253639 
2015.674219  	99.966916 
2017.099731  	99.464514 
2018.525244  	99.272028 
2019.950756  	99.476029 
2021.376268  	99.752578 
2022.801780  	99.813136 
2024.227292  	99.604325 
2025.652804  	99.378013 
2027.078317  	99.307759 
2028.503829  	99.317437 
2029.929341  	99.412385 
2031.354853  	99.568993 
2032.780365  	99.754368 
2034.205877  	99.806074 
2035.631390  	99.667816 
2037.056902  	99.534709 
2038.482414  	99.427541 
2039.907926  	99.358449 
2041.333438  	99.440018 
2042.758951  	99.389935 
2044.184463  	99.299233 
2045.609975  	99.449046 
2047.035487  	99.385225 
2048.460999  	99.101436 
2049.886511  	99.138601 
2051.312024  	99.351455 
2052.737536  	99.496443 
2054.163048  	99.551786 
2055.588560  	99.566164 
2057.014072  	99.592196 
2058.439584  	99.501045 
2059.865097  	99.453914 
2061.290609  	99.657635 
2062.716121  	99.704157 
2064.141633  	99.535664 
2065.567145  	99.558611 
2066.992658  	99.586471 
2068.418170  	99.460267 
2069.843682  	99.428107 
2071.269194  	99.468712 
2072.694706  	99.484031 
2074.120218  	99.567405 
2075.545731  	99.662102 
2076.971243  	99.592459 
2078.396755  	99.450317 
2079.822267  	99.390978 
2081.247779  	99.296202 
2082.673291  	99.211516 
2084.098804  	99.362979 
2085.524316  	99.535644 
2086.949828  	99.511690 
2088.375340  	99.509876 
2089.800852  	99.648813 
2091.226365  	99.729640 
2092.651877  	99.641766 
2094.077389  	99.582580 
2095.502901  	99.663685 
2096.928413  	99.670001 
2098.353925  	99.568549 
2099.779438  	99.455566 
2101.204950  	99.330174 
2102.630462  	99.360941 
2104.055974  	99.477330 
2105.481486  	99.488119 
2106.906999  	99.559297 
2108.332511  	99.570613 
2109.758023  	99.424285 
2111.183535  	99.487995 
2112.609047  	99.675303 
2114.034559  	99.710230 
2115.460072  	99.635633 
2116.885584  	99.482910 
2118.311096  	99.475614 
2119.736608  	99.596597 
2121.162120  	99.505653 
2122.587632  	99.443799 
2124.013145  	99.546611 
2125.438657  	99.572180 
2126.864169  	99.671629 
2128.289681  	99.756490 
2129.715193  	99.612008 
2131.140706  	99.471177 
2132.566218  	99.377182 
2133.991730  	99.468064 
2135.417242  	99.748957 
2136.842754  	99.721267 
2138.268266  	99.678954 
2139.693779  	99.894785 
2141.119291  	99.818469 
2142.544803  	99.630154 
2143.970315  	99.569134 
2145.395827  	99.326465 
2146.821339  	99.130086 
2148.246852  	99.245750 
2149.672364  	99.637143 
2151.097876  	99.923390 
2152.523388  	99.750668 
2153.948900  	99.738692 
2155.374413  	99.977526 
2156.799925  	99.754328 
2158.225437  	99.744699 
2159.650949  	100.043077 
2161.076461  	99.674162 
2162.501973  	99.311867 
2163.927486  	99.286257 
2165.352998  	99.260469 
2166.778510  	99.239572 
2168.204022  	99.185772 
2169.629534  	99.310595 
2171.055047  	99.681495 
2172.480559  	99.787629 
2173.906071  	99.609896 
2175.331583  	99.552350 
2176.757095  	99.700564 
2178.182607  	99.858361 
2179.608120  	99.706894 
2181.033632  	99.384172 
2182.459144  	99.220447 
2183.884656  	99.192466 
2185.310168  	99.392328 
2186.735680  	99.671131 
2188.161193  	99.691515 
2189.586705  	99.746028 
2191.012217  	99.771087 
2192.437729  	99.463393 
2193.863241  	99.423947 
2195.288754  	99.670476 
2196.714266  	99.469812 
2198.139778  	99.134407 
2199.565290  	99.094075 
2200.990802  	99.107515 
2202.416314  	99.231284 
2203.841827  	99.353118 
2205.267339  	99.269556 
2206.692851  	99.360543 
2208.118363  	99.548131 
2209.543875  	99.538815 
2210.969387  	99.599811 
2212.394900  	99.620159 
2213.820412  	99.476505 
2215.245924  	99.504738 
2216.671436  	99.543802 
2218.096948  	99.489794 
2219.522461  	99.560986 
2220.947973  	99.524001 
2222.373485  	99.432004 
2223.798997  	99.534246 
2225.224509  	99.501820 
2226.650021  	99.359513 
2228.075534  	99.490078 
2229.501046  	99.706916 
2230.926558  	99.669400 
2232.352070  	99.425278 
2233.777582  	99.339333 
2235.203095  	99.517547 
2236.628607  	99.516338 
2238.054119  	99.293447 
2239.479631  	99.246445 
2240.905143  	99.355524 
2242.330655  	99.490773 
2243.756168  	99.626034 
2245.181680  	99.618602 
2246.607192  	99.468243 
2248.032704  	99.356700 
2249.458216  	99.390223 
2250.883728  	99.391799 
2252.309241  	99.393375 
2253.734753  	99.394951 
2255.160265  	99.396527 
2256.585777  	99.398103 
2258.011289  	99.399678 
2259.436802  	99.401254 
2260.862314  	99.402830 
2262.287826  	99.404406 
2263.713338  	99.405982 
2265.138850  	99.407558 
2266.564362  	99.409133 
2267.989875  	99.410709 
2269.415387  	99.412285 
2270.840899  	99.413861 
2272.266411  	99.415437 
2273.691923  	99.417013 
2275.117435  	99.418588 
2276.542948  	99.420164 
2277.968460  	99.421740 
2279.393972  	99.423316 
2280.819484  	99.424892 
2282.244996  	99.426468 
2283.670509  	99.428043 
2285.096021  	99.429619 
2286.521533  	99.431195 
2287.947045  	99.432771 
2289.372557  	99.434347 
2290.798069  	99.435923 
2292.223582  	99.437498 
2293.649094  	99.439074 
2295.074606  	99.440650 
2296.500118  	99.442226 
2297.925630  	99.443802 
2299.351142  	99.445378 
2300.776655  	99.446953 
2302.202167  	99.448529 
2303.627679  	99.450105 
2305.053191  	99.451681 
2306.478703  	99.453257 
2307.904216  	99.454832 
2309.329728  	99.456408 
2310.755240  	99.457984 
2312.180752  	99.459560 
2313.606264  	99.461136 
2315.031776  	99.462712 
2316.457289  	99.464287 
2317.882801  	99.465863 
2319.308313  	99.467439 
2320.733825  	99.469015 
2322.159337  	99.470591 
2323.584850  	99.472167 
2325.010362  	99.473742 
2326.435874  	99.475318 
2327.861386  	99.476894 
2329.286898  	99.478470 
2330.712410  	99.480046 
2332.137923  	99.481622 
2333.563435  	99.483197 
2334.988947  	99.484773 
2336.414459  	99.486349 
2337.839971  	99.487925 
2339.265483  	99.489501 
2340.690996  	99.491077 
2342.116508  	99.492652 
2343.542020  	99.494228 
2344.967532  	99.495804 
2346.393044  	99.497380 
2347.818557  	99.498956 
2349.244069  	99.500532 
2350.669581  	99.502107 
2352.095093  	99.503683 
2353.520605  	99.505259 
2354.946117  	99.506835 
2356.371630  	99.508411 
2357.797142  	99.509987 
2359.222654  	99.511562 
2360.648166  	99.513138 
2362.073678  	99.514714 
2363.499190  	99.516290 
2364.924703  	99.517866 
2366.350215  	99.519442 
2367.775727  	99.521017 
2369.201239  	99.522593 
2370.626751  	99.524169 
2372.052264  	99.525745 
2373.477776  	99.527321 
2374.903288  	99.528897 
2376.328800  	99.530472 
2377.754312  	99.532048 
2379.179824  	99.533624 
2380.605337  	99.535200 
2382.030849  	99.536776 
2383.456361  	99.538351 
2384.881873  	99.539927 
2386.307385  	99.541503 
2387.732898  	99.543079 
2389.158410  	99.544655 
2390.583922  	99.546231 
2392.009434  	99.547806 
2393.434946  	99.549382 
2394.860458  	99.550958 
2396.285971  	99.552534 
2397.711483  	99.554110 
2399.136995  	99.555686 
2400.562507  	99.557261 
2401.988019  	99.560977 
2403.413531  	99.568162 
2404.839044  	99.540363 
2406.264556  	99.575785 
2407.690068  	99.607618 
2409.115580  	99.544576 
2410.541092  	99.521729 
2411.966605  	99.543102 
2413.392117  	99.506642 
2414.817629  	99.448697 
2416.243141  	99.409931 
2417.668653  	99.435248 
2419.094165  	99.513186 
2420.519678  	99.532556 
2421.945190  	99.521695 
2423.370702  	99.512637 
2424.796214  	99.461451 
2426.221726  	99.462294 
2427.647238  	99.524613 
2429.072751  	99.555559 
2430.498263  	99.599563 
2431.923775  	99.617185 
2433.349287  	99.561677 
2434.774799  	99.542925 
2436.200312  	99.524767 
2437.625824  	99.452529 
2439.051336  	99.445983 
2440.476848  	99.496988 
2441.902360  	99.506959 
2443.327872  	99.478004 
2444.753385  	99.466873 
2446.178897  	99.532333 
2447.604409  	99.603974 
2449.029921  	99.566243 
2450.455433  	99.470741 
2451.880945  	99.426448 
2453.306458  	99.466226 
2454.731970  	99.507828 
2456.157482  	99.469745 
2457.582994  	99.465600 
2459.008506  	99.546663 
2460.434019  	99.591365 
2461.859531  	99.583998 
2463.285043  	99.523971 
2464.710555  	99.447027 
2466.136067  	99.514493 
2467.561579  	99.630014 
2468.987092  	99.583047 
2470.412604  	99.453522 
2471.838116  	99.373440 
2473.263628  	99.397777 
2474.689140  	99.498858 
2476.114653  	99.529238 
2477.540165  	99.513451 
2478.965677  	99.556328 
2480.391189  	99.581084 
2481.816701  	99.579268 
2483.242213  	99.607181 
2484.667726  	99.621187 
2486.093238  	99.629016 
2487.518750  	99.632884 
2488.944262  	99.579431 
2490.369774  	99.520990 
2491.795286  	99.522614 
2493.220799  	99.552626 
2494.646311  	99.576771 
2496.071823  	99.580522 
2497.497335  	99.541163 
2498.922847  	99.479005 
2500.348360  	99.441903 
2501.773872  	99.428201 
2503.199384  	99.449445 
2504.624896  	99.511895 
2506.050408  	99.532157 
2507.475920  	99.538570 
2508.901433  	99.608462 
2510.326945  	99.602867 
2511.752457  	99.493519 
2513.177969  	99.469899 
2514.603481  	99.524931 
2516.028993  	99.543831 
2517.454506  	99.522615 
2518.880018  	99.496313 
2520.305530  	99.493115 
2521.731042  	99.459615 
2523.156554  	99.402409 
2524.582067  	99.427551 
2526.007579  	99.457990 
2527.433091  	99.449766 
2528.858603  	99.519720 
2530.284115  	99.583457 
2531.709627  	99.549041 
2533.135140  	99.511007 
2534.560652  	99.474247 
2535.986164  	99.435523 
2537.411676  	99.444171 
2538.837188  	99.473101 
2540.262701  	99.513092 
2541.688213  	99.550868 
2543.113725  	99.538279 
2544.539237  	99.499786 
2545.964749  	99.473283 
2547.390261  	99.450187 
2548.815774  	99.422254 
2550.241286  	99.427396 
2551.666798  	99.465740 
2553.092310  	99.443407 
2554.517822  	99.407627 
2555.943334  	99.460944 
2557.368847  	99.494103 
2558.794359  	99.483885 
2560.219871  	99.504362 
2561.645383  	99.495313 
2563.070895  	99.522350 
2564.496408  	99.596014 
2565.921920  	99.525838 
2567.347432  	99.436000 
2568.772944  	99.490994 
2570.198456  	99.508203 
2571.623968  	99.459901 
2573.049481  	99.465797 
2574.474993  	99.466009 
2575.900505  	99.425550 
2577.326017  	99.378386 
2578.751529  	99.348204 
2580.177041  	99.382153 
2581.602554  	99.453723 
2583.028066  	99.479569 
2584.453578  	99.456489 
2585.879090  	99.452305 
2587.304602  	99.480657 
2588.730115  	99.482975 
2590.155627  	99.463625 
2591.581139  	99.431107 
2593.006651  	99.377837 
2594.432163  	99.411078 
2595.857675  	99.488926 
2597.283188  	99.442543 
2598.708700  	99.408495 
2600.134212  	99.492261 
2601.559724  	99.523117 
2602.985236  	99.501586 
2604.410749  	99.498636 
2605.836261  	99.472578 
2607.261773  	99.465781 
2608.687285  	99.461920 
2610.112797  	99.425604 
2611.538309  	99.447724 
2612.963822  	99.471335 
2614.389334  	99.419573 
2615.814846  	99.415374 
2617.240358  	99.471549 
2618.665870  	99.498473 
2620.091382  	99.508846 
2621.516895  	99.511856 
2622.942407  	99.507482 
2624.367919  	99.491065 
2625.793431  	99.439785 
2627.218943  	99.432543 
2628.644456  	99.497982 
2630.069968  	99.503440 
2631.495480  	99.451414 
2632.920992  	99.459201 
2634.346504  	99.482283 
2635.772016  	99.470128 
2637.197529  	99.476365 
2638.623041  	99.468133 
2640.048553  	99.427476 
2641.474065  	99.443648 
2642.899577  	99.482032 
2644.325089  	99.464475 
2645.750602  	99.446437 
2647.176114  	99.434797 
2648.601626  	99.418636 
2650.027138  	99.457987 
2651.452650  	99.486855 
2652.878163  	99.448961 
2654.303675  	99.446510 
2655.729187  	99.472687 
2657.154699  	99.464478 
2658.580211  	99.472627 
2660.005723  	99.481490 
2661.431236  	99.451201 
2662.856748  	99.443992 
2664.282260  	99.472850 
2665.707772  	99.490729 
2667.133284  	99.488936 
2668.558796  	99.477469 
2669.984309  	99.475310 
2671.409821  	99.492481 
2672.835333  	99.514429 
2674.260845  	99.520362 
2675.686357  	99.498261 
2677.111870  	99.476062 
2678.537382  	99.480270 
2679.962894  	99.486174 
2681.388406  	99.472604 
2682.813918  	99.447039 
2684.239430  	99.432662 
2685.664943  	99.437791 
2687.090455  	99.439198 
2688.515967  	99.454972 
2689.941479  	99.498174 
2691.366991  	99.512910 
2692.792504  	99.499862 
2694.218016  	99.490582 
2695.643528  	99.466174 
2697.069040  	99.453203 
2698.494552  	99.474460 
2699.920064  	99.488361 
2701.345577  	99.481743 
2702.771089  	99.458938 
2704.196601  	99.437789 
2705.622113  	99.450890 
2707.047625  	99.477771 
2708.473137  	99.497577 
2709.898650  	99.498011 
2711.324162  	99.461316 
2712.749674  	99.451027 
2714.175186  	99.497286 
2715.600698  	99.524225 
2717.026211  	99.523133 
2718.451723  	99.516111 
2719.877235  	99.483414 
2721.302747  	99.468161 
2722.728259  	99.495056 
2724.153771  	99.500891 
2725.579284  	99.469446 
2727.004796  	99.433207 
2728.430308  	99.412758 
2729.855820  	99.434814 
2731.281332  	99.470210 
2732.706844  	99.457450 
2734.132357  	99.440683 
2735.557869  	99.457720 
2736.983381  	99.447111 
2738.408893  	99.443021 
2739.834405  	99.494480 
2741.259918  	99.492826 
2742.685430  	99.440648 
2744.110942  	99.461832 
2745.536454  	99.504835 
2746.961966  	99.493463 
2748.387478  	99.471534 
2749.812991  	99.471801 
2751.238503  	99.503914 
2752.664015  	99.518115 
2754.089527  	99.468061 
2755.515039  	99.439656 
2756.940552  	99.460467 
2758.366064  	99.462254 
2759.791576  	99.457822 
2761.217088  	99.458010 
2762.642600  	99.448645 
2764.068112  	99.449901 
2765.493625  	99.450196 
2766.919137  	99.445127 
2768.344649  	99.439455 
2769.770161  	99.417167 
2771.195673  	99.417397 
2772.621185  	99.456848 
2774.046698  	99.488930 
2775.472210  	99.498536 
2776.897722  	99.465532 
2778.323234  	99.411122 
2779.748746  	99.428008 
2781.174259  	99.476238 
2782.599771  	99.446507 
2784.025283  	99.403309 
2785.450795  	99.430679 
2786.876307  	99.454011 
2788.301819  	99.439258 
2789.727332  	99.455612 
2791.152844  	99.473761 
2792.578356  	99.451225 
2794.003868  	99.461238 
2795.429380  	99.500320 
2796.854892  	99.508060 
2798.280405  	99.511847 
2799.705917  	99.508036 
2801.131429  	99.491053 
2802.556941  	99.489011 
2803.982453  	99.451307 
2805.407966  	99.415106 
2806.833478  	99.471488 
2808.258990  	99.506712 
2809.684502  	99.462436 
2811.110014  	99.466245 
2812.535526  	99.494093 
2813.961039  	99.449889 
2815.386551  	99.405926 
2816.812063  	99.420934 
2818.237575  	99.427841 
2819.663087  	99.408139 
2821.088600  	99.421649 
2822.514112  	99.455201 
2823.939624  	99.462061 
2825.365136  	99.468821 
2826.790648  	99.474287 
2828.216160  	99.449051 
2829.641673  	99.433813 
2831.067185  	99.443373 
2832.492697  	99.443018 
2833.918209  	99.428663 
2835.343721  	99.408218 
2836.769233  	99.404099 
2838.194746  	99.411900 
2839.620258  	99.395201 
2841.045770  	99.405829 
2842.471282  	99.470422 
2843.896794  	99.484658 
2845.322307  	99.444092 
2846.747819  	99.454976 
2848.173331  	99.510335 
2849.598843  	99.547231 
2851.024355  	99.544989 
2852.449867  	99.492138 
2853.875380  	99.447850 
2855.300892  	99.481303 
2856.726404  	99.507437 
2858.151916  	99.448352 
2859.577428  	99.393790 
2861.002940  	99.395512 
2862.428453  	99.418797 
2863.853965  	99.477314 
2865.279477  	99.526072 
2866.704989  	99.475535 
2868.130501  	99.388510 
2869.556014  	99.363108 
2870.981526  	99.379890 
2872.407038  	99.407810 
2873.832550  	99.434132 
2875.258062  	99.426704 
2876.683574  	99.405109 
2878.109087  	99.416034 
2879.534599  	99.432381 
2880.960111  	99.430695 
2882.385623  	99.442475 
2883.811135  	99.435235 
2885.236647  	99.391027 
2886.662160  	99.392263 
2888.087672  	99.419204 
2889.513184  	99.410612 
2890.938696  	99.433591 
2892.364208  	99.469616 
2893.789721  	99.441045 
2895.215233  	99.408238 
2896.640745  	99.398744 
2898.066257  	99.411900 
2899.491769  	99.482883 
2900.917281  	99.504546 
2902.342794  	99.429104 
2903.768306  	99.410761 
2905.193818  	99.463993 
2906.619330  	99.485848 
2908.044842  	99.474078 
2909.470355  	99.441315 
2910.895867  	99.426077 
2912.321379  	99.472729 
2913.746891  	99.506213 
2915.172403  	99.471881 
2916.597915  	99.424354 
2918.023428  	99.401602 
2919.448940  	99.408893 
2920.874452  	99.439060 
2922.299964  	99.474875 
2923.725476  	99.510465 
2925.150988  	99.504883 
2926.576501  	99.440911 
2928.002013  	99.401622 
2929.427525  	99.417244 
2930.853037  	99.425521 
2932.278549  	99.425028 
2933.704062  	99.441956 
2935.129574  	99.460876 
2936.555086  	99.472886 
2937.980598  	99.467702 
2939.406110  	99.439447 
2940.831622  	99.413777 
2942.257135  	99.423344 
2943.682647  	99.476705 
2945.108159  	99.508336 
2946.533671  	99.472384 
2947.959183  	99.454040 
2949.384695  	99.477578 
2950.810208  	99.471582 
2952.235720  	99.462205 
2953.661232  	99.469365 
2955.086744  	99.476279 
2956.512256  	99.522582 
2957.937769  	99.553449 
2959.363281  	99.510233 
2960.788793  	99.474056 
2962.214305  	99.469009 
2963.639817  	99.494724 
2965.065329  	99.556884 
2966.490842  	99.555268 
2967.916354  	99.517529 
2969.341866  	99.560751 
2970.767378  	99.610963 
2972.192890  	99.615986 
2973.618403  	99.623731 
2975.043915  	99.596075 
2976.469427  	99.534347 
2977.894939  	99.511773 
2979.320451  	99.530227 
2980.745963  	99.561602 
2982.171476  	99.608606 
2983.596988  	99.660908 
2985.022500  	99.648707 
2986.448012  	99.556060 
2987.873524  	99.518055 
2989.299036  	99.581251 
2990.724549  	99.627434 
2992.150061  	99.616380 
2993.575573  	99.575369 
2995.001085  	99.540263 
2996.426597  	99.559809 
2997.852110  	99.563811 
2999.277622  	99.510990 
3000.703134  	99.514331 
3002.128646  	99.560292 
3003.554158  	99.552091 
3004.979670  	99.542079 
3006.405183  	99.559722 
3007.830695  	99.548756 
3009.256207  	99.518844 
3010.681719  	99.517730 
3012.107231  	99.556195 
3013.532743  	99.573284 
3014.958256  	99.514188 
3016.383768  	99.465297 
3017.809280  	99.510403 
3019.234792  	99.561069 
3020.660304  	99.517642 
3022.085817  	99.446701 
3023.511329  	99.478489 
3024.936841  	99.573870 
3026.362353  	99.588172 
3027.787865  	99.532058 
3029.213377  	99.484580 
3030.638890  	99.471843 
3032.064402  	99.513395 
3033.489914  	99.508152 
3034.915426  	99.416499 
3036.340938  	99.419270 
3037.766450  	99.475044 
3039.191963  	99.414462 
3040.617475  	99.373277 
3042.042987  	99.409082 
3043.468499  	99.399019 
3044.894011  	99.398147 
3046.319524  	99.431579 
3047.745036  	99.438810 
3049.170548  	99.449590 
3050.596060  	99.462696 
3052.021572  	99.485891 
3053.447084  	99.511499 
3054.872597  	99.473496 
3056.298109  	99.452407 
3057.723621  	99.465468 
3059.149133  	99.389743 
3060.574645  	99.326675 
3062.000158  	99.365744 
3063.425670  	99.391140 
3064.851182  	99.396874 
3066.276694  	99.425951 
3067.702206  	99.439900 
3069.127718  	99.416553 
3070.553231  	99.379265 
3071.978743  	99.400028 
3073.404255  	99.439576 
3074.829767  	99.418277 
3076.255279  	99.440557 
3077.680791  	99.479658 
3079.106304  	99.390572 
3080.531816  	99.318984 
3081.957328  	99.373562 
3083.382840  	99.424465 
3084.808352  	99.447416 
3086.233865  	99.466045 
3087.659377  	99.439705 
3089.084889  	99.390261 
3090.510401  	99.369576 
3091.935913  	99.376643 
3093.361425  	99.355788 
3094.786938  	99.310686 
3096.212450  	99.318164 
3097.637962  	99.350774 
3099.063474  	99.360343 
3100.488986  	99.372686 
3101.914498  	99.347667 
3103.340011  	99.281003 
3104.765523  	99.282459 
3106.191035  	99.355820 
3107.616547  	99.367074 
3109.042059  	99.285412 
3110.467572  	99.255863 
3111.893084  	99.303749 
3113.318596  	99.278191 
3114.744108  	99.213522 
3116.169620  	99.235945 
3117.595132  	99.279331 
3119.020645  	99.297929 
3120.446157  	99.314130 
3121.871669  	99.274763 
3123.297181  	99.197029 
3124.722693  	99.197179 
3126.148206  	99.310802 
3127.573718  	99.397304 
3128.999230  	99.324011 
3130.424742  	99.230373 
3131.850254  	99.238264 
3133.275766  	99.228186 
3134.701279  	99.188913 
3136.126791  	99.201749 
3137.552303  	99.221758 
3138.977815  	99.239292 
3140.403327  	99.258928 
3141.828839  	99.241183 
3143.254352  	99.223998 
3144.679864  	99.237337 
3146.105376  	99.259911 
3147.530888  	99.281225 
3148.956400  	99.283693 
3150.381913  	99.270641 
3151.807425  	99.226023 
3153.232937  	99.142090 
3154.658449  	99.118545 
3156.083961  	99.177212 
3157.509473  	99.204729 
3158.934986  	99.172314 
3160.360498  	99.139428 
3161.786010  	99.158342 
3163.211522  	99.215477 
3164.637034  	99.230675 
3166.062546  	99.208812 
3167.488059  	99.206922 
3168.913571  	99.198657 
3170.339083  	99.171949 
3171.764595  	99.153230 
3173.190107  	99.140271 
3174.615620  	99.135861 
3176.041132  	99.134217 
3177.466644  	99.135052 
3178.892156  	99.160780 
3180.317668  	99.173375 
3181.743180  	99.141768 
3183.168693  	99.123642 
3184.594205  	99.127550 
3186.019717  	99.097784 
3187.445229  	99.063194 
3188.870741  	99.077806 
3190.296254  	99.102082 
3191.721766  	99.091953 
3193.147278  	99.080024 
3194.572790  	99.106847 
3195.998302  	99.158891 
3197.423814  	99.182337 
3198.849327  	99.159173 
3200.274839  	99.117593 
3201.700351  	99.056949 
3203.125863  	99.032917 
3204.551375  	99.124004 
3205.976887  	99.192508 
3207.402400  	99.122516 
3208.827912  	99.083915 
3210.253424  	99.125093 
3211.678936  	99.104439 
3213.104448  	99.077423 
3214.529961  	99.133375 
3215.955473  	99.195391 
3217.380985  	99.199528 
3218.806497  	99.144753 
3220.232009  	99.097927 
3221.657521  	99.109373 
3223.083034  	99.087849 
3224.508546  	99.010218 
3225.934058  	98.973795 
3227.359570  	98.980221 
3228.785082  	98.986377 
3230.210594  	99.013984 
3231.636107  	99.088504 
3233.061619  	99.144712 
3234.487131  	99.088430 
3235.912643  	99.032735 
3237.338155  	99.079564 
3238.763668  	99.062170 
3240.189180  	99.000613 
3241.614692  	99.061562 
3243.040204  	99.086512 
3244.465716  	99.010855 
3245.891228  	99.010333 
3247.316741  	99.041773 
3248.742253  	99.054405 
3250.167765  	99.096990 
3251.593277  	99.103517 
3253.018789  	99.085554 
3254.444301  	99.088777 
3255.869814  	99.107054 
3257.295326  	99.191007 
3258.720838  	99.211735 
3260.146350  	99.069174 
3261.571862  	98.992666 
3262.997375  	99.010183 
3264.422887  	98.977075 
3265.848399  	99.000443 
3267.273911  	99.066516 
3268.699423  	99.061236 
3270.124935  	99.094361 
3271.550448  	99.145184 
3272.975960  	99.078977 
3274.401472  	98.988378 
3275.826984  	98.968926 
3277.252496  	98.989074 
3278.678009  	99.013494 
3280.103521  	99.011584 
3281.529033  	99.021843 
3282.954545  	99.082355 
3284.380057  	99.104089 
3285.805569  	99.035357 
3287.231082  	98.963232 
3288.656594  	98.973468 
3290.082106  	99.043395 
3291.507618  	99.083855 
3292.933130  	99.077916 
3294.358642  	99.092434 
3295.784155  	99.152650 
3297.209667  	99.192927 
3298.635179  	99.114812 
3300.060691  	98.967170 
3301.486203  	98.928948 
3302.911716  	98.974065 
3304.337228  	98.964209 
3305.762740  	98.990298 
3307.188252  	99.083267 
3308.613764  	99.079509 
3310.039276  	99.041843 
3311.464789  	99.086046 
3312.890301  	99.069860 
3314.315813  	98.984742 
3315.741325  	98.980460 
3317.166837  	98.984100 
3318.592349  	98.946515 
3320.017862  	99.017783 
3321.443374  	99.151835 
3322.868886  	99.127908 
3324.294398  	98.997246 
3325.719910  	98.963853 
3327.145423  	98.994457 
3328.570935  	99.016017 
3329.996447  	99.112047 
3331.421959  	99.194231 
3332.847471  	99.102769 
3334.272983  	99.016162 
3335.698496  	99.090993 
3337.124008  	99.136837 
3338.549520  	99.076474 
3339.975032  	99.057466 
3341.400544  	99.089417 
3342.826057  	99.106831 
3344.251569  	99.124522 
3345.677081  	99.137317 
3347.102593  	99.120973 
3348.528105  	99.089066 
3349.953617  	99.058677 
3351.379130  	99.050986 
3352.804642  	99.080882 
3354.230154  	99.130758 
3355.655666  	99.160563 
3357.081178  	99.124380 
3358.506690  	99.065427 
3359.932203  	99.103980 
3361.357715  	99.200385 
3362.783227  	99.207831 
3364.208739  	99.161580 
3365.634251  	99.147318 
3367.059764  	99.142802 
3368.485276  	99.155501 
3369.910788  	99.169795 
3371.336300  	99.120656 
3372.761812  	99.074615 
3374.187324  	99.115970 
3375.612837  	99.168041 
3377.038349  	99.164841 
3378.463861  	99.168933 
3379.889373  	99.196026 
3381.314885  	99.169793 
3382.740397  	99.131503 
3384.165910  	99.174753 
3385.591422  	99.206324 
3387.016934  	99.158215 
3388.442446  	99.148530 
3389.867958  	99.194472 
3391.293471  	99.209230 
3392.718983  	99.199645 
3394.144495  	99.200059 
3395.570007  	99.209883 
3396.995519  	99.213713 
3398.421031  	99.194924 
3399.846544  	99.168633 
3401.272056  	99.148763 
3402.697568  	99.147146 
3404.123080  	99.171591 
3405.548592  	99.174878 
3406.974105  	99.140848 
3408.399617  	99.135654 
3409.825129  	99.166100 
3411.250641  	99.167971 
3412.676153  	99.201386 
3414.101665  	99.334373 
3415.527178  	99.365249 
3416.952690  	99.228857 
3418.378202  	99.221043 
3419.803714  	99.291704 
3421.229226  	99.192779 
3422.654738  	99.154538 
3424.080251  	99.242914 
3425.505763  	99.266645 
3426.931275  	99.367862 
3428.356787  	99.474214 
3429.782299  	99.369404 
3431.207812  	99.348650 
3432.633324  	99.499068 
3434.058836  	99.497910 
3435.484348  	99.369667 
3436.909860  	99.298963 
3438.335372  	99.287983 
3439.760885  	99.277247 
3441.186397  	99.256559 
3442.611909  	99.322302 
3444.037421  	99.418108 
3445.462933  	99.406204 
3446.888445  	99.395450 
3448.313958  	99.418030 
3449.739470  	99.388700 
3451.164982  	99.383961 
3452.590494  	99.368592 
3454.016006  	99.297213 
3455.441519  	99.330257 
3456.867031  	99.459281 
3458.292543  	99.518055 
3459.718055  	99.488684 
3461.143567  	99.407616 
3462.569079  	99.322156 
3463.994592  	99.315732 
3465.420104  	99.370592 
3466.845616  	99.379029 
3468.271128  	99.331648 
3469.696640  	99.324997 
3471.122152  	99.372361 
3472.547665  	99.434272 
3473.973177  	99.476290 
3475.398689  	99.439020 
3476.824201  	99.406369 
3478.249713  	99.460646 
3479.675226  	99.478282 
3481.100738  	99.451002 
3482.526250  	99.456280 
3483.951762  	99.410060 
3485.377274  	99.364753 
3486.802786  	99.419181 
3488.228299  	99.458677 
3489.653811  	99.437761 
3491.079323  	99.432782 
3492.504835  	99.457221 
3493.930347  	99.511991 
3495.355860  	99.557943 
3496.781372  	99.540578 
3498.206884  	99.496312 
3499.632396  	99.492773 
3501.057908  	99.544183 
3502.483420  	99.569582 
3503.908933  	99.508516 
3505.334445  	99.485380 
3506.759957  	99.583020 
3508.185469  	99.699283 
3509.610981  	99.715758 
3511.036493  	99.656750 
3512.462006  	99.581721 
3513.887518  	99.501291 
3515.313030  	99.506951 
3516.738542  	99.646026 
3518.164054  	99.773438 
3519.589567  	99.772319 
3521.015079  	99.697876 
3522.440591  	99.651653 
3523.866103  	99.664652 
3525.291615  	99.634741 
3526.717127  	99.568595 
3528.142640  	99.608183 
3529.568152  	99.689164 
3530.993664  	99.717340 
3532.419176  	99.760594 
3533.844688  	99.803905 
3535.270200  	99.786090 
3536.695713  	99.677818 
3538.121225  	99.532997 
3539.546737  	99.506920 
3540.972249  	99.628604 
3542.397761  	99.635409 
3543.823274  	99.634428 
3545.248786  	99.630006 
3546.674298  	99.622571 
3548.099810  	99.618172 
3549.525322  	99.622073 
3550.950834  	99.634504 
3552.376347  	99.648669 
3553.801859  	99.661340 
3555.227371  	99.672174 
3556.652883  	99.680803 
3558.078395  	99.689059 
3559.503908  	99.699892 
3560.929420  	99.710578 
3562.354932  	99.715173 
3563.780444  	99.716155 
3565.205956  	99.720409 
3566.631468  	99.730578 
3568.056981  	99.741059 
3569.482493  	99.746782 
3570.908005  	99.750234 
3572.333517  	99.771693 
3573.759029  	99.756841 
3575.184541  	99.762761 
3576.610054  	99.768263 
3578.035566  	99.774260 
3579.461078  	99.782156 
3580.886590  	99.790785 
3582.312102  	99.794911 
3583.737615  	99.793547 
3585.163127  	99.791059 
3586.588639  	99.799621 
3588.014151  	99.815686 
3589.439663  	99.826586 
3590.865175  	99.830254 
3592.290688  	99.832574 
3593.716200  	99.837538 
3595.141712  	99.841760 
3596.567224  	99.842072 
3597.992736  	99.840586 
3599.418248  	99.839246 
3600.843761  	99.839867 
3602.269273  	99.839720 
3603.694785  	99.837013 
3605.120297  	99.836145 
3606.545809  	99.845021 
3607.971322  	99.858396 
3609.396834  	99.872736 
3610.822346  	99.880727 
3612.247858  	99.875701 
3613.673370  	99.866011 
3615.098882  	99.860731 
3616.524395  	99.856003 
3617.949907  	99.853305 
3619.375419  	99.864787 
3620.800931  	99.881531 
3622.226443  	99.888737 
3623.651955  	99.880036 
3625.077468  	99.873595 
3626.502980  	99.873933 
3627.928492  	99.878358 
3629.354004  	99.883090 
3630.779516  	99.884006 
3632.205029  	99.884337 
3633.630541  	99.879136 
3635.056053  	99.872405 
3636.481565  	99.724912 
3637.907077  	99.899750 
3639.332589  	99.914080 
3640.758102  	99.927972 
3642.183614  	99.931886 
3643.609126  	99.928630 
3645.034638  	99.914107 
3646.460150  	99.905518 
3647.885663  	99.913885 
3649.311175  	99.929840 
3650.736687  	99.940941 
3652.162199  	99.942488 
3653.587711  	99.940336 
3655.013223  	99.940410 
3656.438736  	99.948553 
3657.864248  	99.959376 
3659.289760  	99.956616 
3660.715272  	99.973440 
3662.140784  	99.980941 
3663.566296  	99.935425 
3664.991809  	99.960102 
3666.417321  	99.961362 
3667.842833  	99.965993 
3669.268345  	99.979698 
3670.693857  	99.995411 
3672.119370  	100.003650 
3673.544882  	100.000102 
3674.970394  	99.994552 
3676.395906  	99.996987 
3677.821418  	100.001158 
3679.246930  	100.001397 
3680.672443  	99.997686 
3682.097955  	100.036807 
3683.523467  	99.980705 
3684.948979  	99.973657 
3686.374491  	99.963482 
3687.800003  	99.954159 
3689.225516  	99.954306 
3690.651028  	99.955429 
3692.076540  	99.952714 
3693.502052  	99.949050 
3694.927564  	99.946792 
3696.353077  	99.955779 
3697.778589  	99.952149 
3699.204101  	99.968176 
3700.629613  	99.972949 
3702.055125  	99.972294 
3703.480637  	99.971427 
3704.906150  	99.972009 
3706.331662  	99.959380 
3707.757174  	99.947197 
3709.182686  	99.934274 
3710.608198  	99.923706 
3712.033711  	99.929531 
3713.459223  	99.948803 
3714.884735  	99.958969 
3716.310247  	99.919144 
3717.735759  	99.951834 
3719.161271  	99.954292 
3720.586784  	99.950034 
3722.012296  	99.942878 
3723.437808  	99.946782 
3724.863320  	99.958035 
3726.288832  	99.961205 
3727.714344  	99.957253 
3729.139857  	99.958372 
3730.565369  	99.965963 
3731.990881  	99.972654 
3733.416393  	99.963721 
3734.841905  	99.962859 
3736.267418  	99.965657 
3737.692930  	99.960818 
3739.118442  	99.945947 
3740.543954  	99.938030 
3741.969466  	99.937631 
3743.394978  	99.932521 
3744.820491  	99.929700 
3746.246003  	99.928311 
3747.671515  	99.912347 
3749.097027  	99.885385 
3750.522539  	99.875237 
3751.948051  	99.881539 
3753.373564  	99.883526 
3754.799076  	99.875975 
3756.224588  	99.875457 
3757.650100  	99.895772 
3759.075612  	99.906489 
3760.501125  	99.905722 
3761.926637  	99.903685 
3763.352149  	99.931202 
3764.777661  	99.907761 
3766.203173  	99.899956 
3767.628685  	99.892936 
3769.054198  	99.888107 
3770.479710  	99.893116 
3771.905222  	99.910308 
3773.330734  	100.027902 
3774.756246  	99.929218 
3776.181759  	99.907086 
3777.607271  	99.912034 
3779.032783  	99.923549 
3780.458295  	99.928426 
3781.883807  	99.929072 
3783.309319  	99.931303 
3784.734832  	99.929386 
3786.160344  	99.925910 
3787.585856  	99.935032 
3789.011368  	99.955181 
3790.436880  	99.979402 
3791.862392  	99.962863 
3793.287905  	99.969674 
3794.713417  	99.972134 
3796.138929  	99.958123 
3797.564441  	99.956961 
3798.989953  	99.965618 
3800.415466  	99.966469 
3801.840978  	99.960711 
3803.266490  	99.955700 
3804.692002  	99.951028 
3806.117514  	99.950657 
3807.543026  	99.959238 
3808.968539  	99.968103 
3810.394051  	99.957852 
3811.819563  	99.948663 
3813.245075  	99.945095 
3814.670587  	99.945997 
3816.096099  	99.945339 
3817.521612  	99.943390 
3818.947124  	99.944616 
3820.372636  	99.950799 
3821.798148  	99.954571 
3823.223660  	99.958277 
3824.649173  	99.965497 
3826.074685  	99.967542 
3827.500197  	99.964576 
3828.925709  	99.966347 
3830.351221  	99.964877 
3831.776733  	99.954804 
3833.202246  	99.946777 
3834.627758  	99.950420 
3836.053270  	99.949753 
3837.478782  	99.942850 
3838.904294  	99.938493 
3840.329806  	99.939482 
3841.755319  	99.938057 
3843.180831  	99.937696 
3844.606343  	99.946856 
3846.031855  	99.953600 
3847.457367  	99.944364 
3848.882880  	99.930392 
3850.308392  	99.923167 
3851.733904  	99.922874 
3853.159416  	99.922358 
3854.584928  	99.921447 
3856.010440  	99.919570 
3857.435953  	99.913803 
3858.861465  	99.903332 
3860.286977  	99.901302 
3861.712489  	99.909395 
3863.138001  	99.913386 
3864.563514  	99.906092 
3865.989026  	99.900699 
3867.414538  	99.899084 
3868.840050  	99.885028 
3870.265562  	99.869054 
3871.691074  	99.874762 
3873.116587  	99.892036 
3874.542099  	99.895696 
3875.967611  	99.892824 
3877.393123  	99.895749 
3878.818635  	99.902014 
3880.244147  	99.901101 
3881.669660  	99.900173 
3883.095172  	99.910826 
3884.520684  	99.919700 
3885.946196  	99.917163 
3887.371708  	99.914441 
3888.797221  	99.920773 
3890.222733  	99.925853 
3891.648245  	99.930449 
3893.073757  	99.941176 
3894.499269  	99.949286 
3895.924781  	99.946063 
3897.350294  	99.935100 
3898.775806  	99.932927 
3900.201318  	99.933745 
3901.626830  	99.930507 
3903.052342  	99.925349 
3904.477854  	99.923681 
3905.903367  	99.924553 
3907.328879  	99.921281 
3908.754391  	99.912818 
3910.179903  	99.820781 
3911.605415  	99.908858 
3913.030928  	99.908556 
3914.456440  	99.907163 
3915.881952  	99.901975 
3917.307464  	99.898501 
3918.732976  	99.899232 
3920.158488  	99.899146 
3921.584001  	99.901146 
3923.009513  	99.909431 
3924.435025  	99.917530 
3925.860537  	99.918004 
3927.286049  	99.914583 
3928.711562  	99.915763 
3930.137074  	99.920086 
3931.562586  	99.919325 
3932.988098  	99.915840 
3934.413610  	99.916307 
3935.839122  	99.967048 
3937.264635  	99.910901 
3938.690147  	99.906681 
3940.115659  	99.909256 
3941.541171  	99.909099 
3942.966683  	99.909455 
3944.392195  	99.911781 
3945.817708  	99.912460 
3947.243220  	99.910066 
3948.668732  	99.909111 
3950.094244  	99.915315 
3951.519756  	99.923027 
3952.945269  	99.926974 
3954.370781  	99.923896 
3955.796293  	99.926064 
3957.221805  	99.927959 
3958.647317  	99.925070 
3960.072829  	99.954414 
3961.498342  	99.984578 
3962.923854  	99.952098 
3964.349366  	99.955112 
3965.774878  	99.955591 
3967.200390  	99.881731 
3968.625902  	99.898578 
3970.051415  	99.968982 
3971.476927  	99.936308 
3972.902439  	99.943529 
3974.327951  	99.997256 
3975.753463  	99.943556 
3977.178976  	99.892440 
3978.604488  	99.932252 
3980.030000  	99.967853 
3981.455512  	99.962200 
3982.881024  	99.956010 
3984.306536  	99.950319 
3985.732049  	99.904834 
3987.157561  	99.881604 
3988.583073  	99.913631 
3990.008585  	99.890787 
3991.434097  	99.889922 
3992.859610  	99.973941 
3994.285122  	99.935827 
3995.710634  	99.850032 
3997.136146  	99.919798 
3998.561658  	99.967232 
3999.987170  	99.919728 